time (s), accel_x (m/s^2), accel_y (m/s^2), accel_z (m/s^2), gyro_x (rad/s), gyro_y (rad/s), gyro_z (rad/s), x (m), y (m), z (m), yaw (rad), pitch (rad), roll (rad), mocap_counter, counter, desired x, desired y, desired z, desired yaw
0.0000, 0.0000, 0.0000, 0.0000, 0.0000, 0.0000, 0.0000, 0.0570, -0.0045, -0.0857, -0.1798, 0.0192, 0.0019, 338, 0, 0.0000, 0.0000, 0.0000, 0.0000
0.0200, 0.0000, 0.0000, 0.0000, 0.0000, 0.0000, 0.0000, 0.0570, -0.0043, -0.0856, -0.1800, 0.0183, 0.0023, 339, 0, 0.0000, 0.0000, 0.0000, 0.0000
0.0390, 0.0000, 0.0000, 0.0000, 0.0000, 0.0000, 0.0000, 0.0569, -0.0044, -0.0855, -0.1798, 0.0178, 0.0020, 340, 0, 0.0000, 0.0000, 0.0000, 0.0000
0.0600, 0.0000, 0.0000, 0.0000, 0.0000, 0.0000, 0.0000, 0.0570, -0.0045, -0.0857, -0.1800, 0.0191, 0.0016, 341, 0, 0.0000, 0.0000, 0.0000, 0.0000
0.0800, 0.0000, 0.0000, 0.0000, 0.0000, 0.0000, 0.0000, 0.0568, -0.0044, -0.0852, -0.1803, 0.0165, 0.0012, 342, 0, 0.0000, 0.0000, 0.0000, 0.0000
0.1000, 0.0000, 0.0000, 0.0000, 0.0000, 0.0000, 0.0000, 0.0569, -0.0044, -0.0856, -0.1800, 0.0183, 0.0019, 343, 0, 0.0000, 0.0000, 0.0000, 0.0000
0.1200, 0.0000, 0.0000, 0.0000, 0.0000, 0.0000, 0.0000, 0.0569, -0.0044, -0.0854, -0.1800, 0.0169, 0.0025, 344, 0, 0.0000, 0.0000, 0.0000, 0.0000
0.1400, 0.0000, 0.0000, 0.0000, 0.0000, 0.0000, 0.0000, 0.0569, -0.0045, -0.0855, -0.1798, 0.0180, 0.0024, 345, 0, 0.0000, 0.0000, 0.0000, 0.0000
0.1600, 0.0000, 0.0000, 0.0000, 0.0000, 0.0000, 0.0000, 0.0570, -0.0044, -0.0856, -0.1800, 0.0190, 0.0017, 346, 0, 0.0000, 0.0000, 0.0000, 0.0000
0.1800, 0.0000, 0.0000, 0.0000, 0.0000, 0.0000, 0.0000, 0.0570, -0.0044, -0.0855, -0.1800, 0.0182, 0.0017, 347, 0, 0.0000, 0.0000, 0.0000, 0.0000
0.2000, 0.0000, 0.0000, 0.0000, 0.0000, 0.0000, 0.0000, 0.0570, -0.0045, -0.0856, -0.1799, 0.0180, 0.0022, 348, 0, 0.0000, 0.0000, 0.0000, 0.0000
0.2200, 0.0000, 0.0000, 0.0000, 0.0000, 0.0000, 0.0000, 0.0568, -0.0044, -0.0855, -0.1800, 0.0168, 0.0025, 349, 0, 0.0000, 0.0000, 0.0000, 0.0000
0.2400, 0.0000, 0.0000, 0.0000, 0.0000, 0.0000, 0.0000, 0.0570, -0.0044, -0.0855, -0.1798, 0.0181, 0.0022, 350, 0, 0.0000, 0.0000, 0.0000, 0.0000
0.2600, 0.0000, 0.0000, 0.0000, 0.0000, 0.0000, 0.0000, 0.0571, -0.0044, -0.0856, -0.1798, 0.0190, 0.0016, 351, 0, 0.0000, 0.0000, 0.0000, 0.0000
0.2800, 0.0000, 0.0000, 0.0000, 0.0000, 0.0000, 0.0000, 0.0568, -0.0045, -0.0854, -0.1800, 0.0168, 0.0024, 352, 0, 0.0000, 0.0000, 0.0000, 0.0000
0.3000, 0.0000, 0.0000, 0.0000, 0.0000, 0.0000, 0.0000, 0.0570, -0.0044, -0.0856, -0.1799, 0.0182, 0.0020, 353, 0, 0.0000, 0.0000, 0.0000, 0.0000
0.3200, 0.0000, 0.0000, 0.0000, 0.0000, 0.0000, 0.0000, 0.0570, -0.0043, -0.0856, -0.1801, 0.0191, 0.0017, 354, 0, 0.0000, 0.0000, 0.0000, 0.0000
0.3400, 0.0000, 0.0000, 0.0000, 0.0000, 0.0000, 0.0000, 0.0569, -0.0044, -0.0856, -0.1799, 0.0180, 0.0020, 355, 0, 0.0000, 0.0000, 0.0000, 0.0000
0.3600, 0.0000, 0.0000, 0.0000, 0.0000, 0.0000, 0.0000, 0.0570, -0.0045, -0.0857, -0.1800, 0.0191, 0.0018, 356, 0, 0.0000, 0.0000, 0.0000, 0.0000
0.3800, 0.0000, 0.0000, 0.0000, 0.0000, 0.0000, 0.0000, 0.0569, -0.0044, -0.0856, -0.1801, 0.0184, 0.0019, 357, 0, 0.0000, 0.0000, 0.0000, 0.0000
0.4000, 0.0000, 0.0000, 0.0000, 0.0000, 0.0000, 0.0000, 0.0569, -0.0044, -0.0855, -0.1799, 0.0181, 0.0021, 358, 0, 0.0000, 0.0000, 0.0000, 0.0000
0.4200, 0.0000, 0.0000, 0.0000, 0.0000, 0.0000, 0.0000, 0.0570, -0.0044, -0.0857, -0.1801, 0.0192, 0.0019, 359, 0, 0.0000, 0.0000, 0.0000, 0.0000
0.4400, 0.0000, 0.0000, 0.0000, 0.0000, 0.0000, 0.0000, 0.0570, -0.0045, -0.0855, -0.1797, 0.0179, 0.0020, 360, 0, 0.0000, 0.0000, 0.0000, 0.0000
0.4600, 0.0000, 0.0000, 0.0000, 0.0000, 0.0000, 0.0000, 0.0570, -0.0044, -0.0856, -0.1800, 0.0184, 0.0020, 361, 0, 0.0000, 0.0000, 0.0000, 0.0000
0.4800, 0.0000, 0.0000, 0.0000, 0.0000, 0.0000, 0.0000, 0.0569, -0.0044, -0.0856, -0.1800, 0.0184, 0.0020, 362, 0, 0.0000, 0.0000, 0.0000, 0.0000
0.4990, 0.0000, 0.0000, 0.0000, 0.0000, 0.0000, 0.0000, 0.0568, -0.0045, -0.0855, -0.1800, 0.0166, 0.0028, 363, 0, 0.0000, 0.0000, 0.0000, 0.0000
0.5200, 0.0000, 0.0000, 0.0000, 0.0000, 0.0000, 0.0000, 0.0570, -0.0044, -0.0856, -0.1800, 0.0190, 0.0017, 364, 0, 0.0000, 0.0000, 0.0000, 0.0000
0.5400, 0.0000, 0.0000, 0.0000, 0.0000, 0.0000, 0.0000, 0.0571, -0.0044, -0.0856, -0.1798, 0.0177, 0.0022, 365, 0, 0.0000, 0.0000, 0.0000, 0.0000
0.5600, 0.0000, 0.0000, 0.0000, 0.0000, 0.0000, 0.0000, 0.0569, -0.0044, -0.0855, -0.1797, 0.0181, 0.0018, 366, 0, 0.0000, 0.0000, 0.0000, 0.0000
0.5800, 0.0000, 0.0000, 0.0000, 0.0000, 0.0000, 0.0000, 0.0571, -0.0045, -0.0858, -0.1790, 0.0186, 0.0013, 367, 0, 0.0000, 0.0000, 0.0000, 0.0000
0.6000, 0.0000, 0.0000, 0.0000, 0.0000, 0.0000, 0.0000, 0.0570, -0.0045, -0.0858, -0.1790, 0.0177, 0.0008, 368, 0, 0.0000, 0.0000, 0.0000, 0.0000
0.6200, 0.0000, 0.0000, 0.0000, 0.0000, 0.0000, 0.0000, 0.0572, -0.0046, -0.0860, -0.1783, 0.0179, -0.0014, 369, 0, 0.0000, 0.0000, 0.0000, 0.0000
0.6400, 0.0000, 0.0000, 0.0000, 0.0000, 0.0000, 0.0000, 0.0572, -0.0050, -0.0863, -0.1770, 0.0170, -0.0056, 370, 0, 0.0000, 0.0000, 0.0000, 0.0000
0.6600, 0.0000, 0.0000, 0.0000, 0.0000, 0.0000, 0.0000, 0.0573, -0.0054, -0.0863, -0.1737, 0.0162, -0.0129, 371, 0, 0.0000, 0.0000, 0.0000, 0.0000
0.6800, 0.0000, 0.0000, 0.0000, 0.0000, 0.0000, 0.0000, 0.0574, -0.0053, -0.0864, -0.1702, 0.0188, -0.0180, 372, 0, 0.0000, 0.0000, 0.0000, 0.0000
0.7000, 0.0000, 0.0000, 0.0000, 0.0000, 0.0000, 0.0000, 0.0578, -0.0048, -0.0864, -0.1666, 0.0210, -0.0215, 373, 0, 0.0000, 0.0000, 0.0000, 0.0000
0.7200, 0.0000, 0.0000, 0.0000, 0.0000, 0.0000, 0.0000, 0.0583, -0.0043, -0.0866, -0.1622, 0.0246, -0.0236, 374, 0, 0.0000, 0.0000, 0.0000, 0.0000
0.7400, 0.0000, 0.0000, 0.0000, 0.0000, 0.0000, 0.0000, 0.0591, -0.0033, -0.0871, -0.1581, 0.0296, -0.0273, 375, 0, 0.0000, 0.0000, 0.0000, 0.0000
0.7600, 0.0000, 0.0000, 0.0000, 0.0000, 0.0000, 0.0000, 0.0598, -0.0021, -0.0872, -0.1537, 0.0302, -0.0296, 376, 0, 0.0000, 0.0000, 0.0000, 0.0000
0.7800, 0.0000, 0.0000, 0.0000, 0.0000, 0.0000, 0.0000, 0.0608, -0.0009, -0.0874, -0.1490, 0.0314, -0.0321, 377, 0, 0.0000, 0.0000, 0.0000, 0.0000
0.8000, 0.0000, 0.0000, 0.0000, 0.0000, 0.0000, 0.0000, 0.0620, 0.0002, -0.0880, -0.1446, 0.0339, -0.0348, 378, 0, 0.0000, 0.0000, 0.0000, 0.0000
0.8200, 0.0000, 0.0000, 0.0000, 0.0000, 0.0000, 0.0000, 0.0632, 0.0018, -0.0884, -0.1395, 0.0354, -0.0372, 379, 0, 0.0000, 0.0000, 0.0000, 0.0000
0.8400, 0.0000, 0.0000, 0.0000, 0.0000, 0.0000, 0.0000, 0.0646, 0.0032, -0.0889, -0.1345, 0.0362, -0.0410, 380, 0, 0.0000, 0.0000, 0.0000, 0.0000
0.8600, 0.0000, 0.0000, 0.0000, 0.0000, 0.0000, 0.0000, 0.0659, 0.0047, -0.0892, -0.1289, 0.0368, -0.0445, 381, 0, 0.0000, 0.0000, 0.0000, 0.0000
0.8800, 0.0000, 0.0000, 0.0000, 0.0000, 0.0000, 0.0000, 0.0673, 0.0063, -0.0899, -0.1242, 0.0392, -0.0494, 382, 0, 0.0000, 0.0000, 0.0000, 0.0000
0.9000, 0.0000, 0.0000, 0.0000, 0.0000, 0.0000, 0.0000, 0.0686, 0.0082, -0.0902, -0.1188, 0.0404, -0.0535, 383, 0, 0.0000, 0.0000, 0.0000, 0.0000
0.9190, 0.0000, 0.0000, 0.0000, 0.0000, 0.0000, 0.0000, 0.0700, 0.0099, -0.0909, -0.1135, 0.0435, -0.0566, 384, 0, 0.0000, 0.0000, 0.0000, 0.0000
0.9400, 0.0000, 0.0000, 0.0000, 0.0000, 0.0000, 0.0000, 0.0713, 0.0117, -0.0914, -0.1081, 0.0460, -0.0590, 385, 0, 0.0000, 0.0000, 0.0000, 0.0000
0.9600, 0.0000, 0.0000, 0.0000, 0.0000, 0.0000, 0.0000, 0.0727, 0.0136, -0.0918, -0.1028, 0.0475, -0.0613, 386, 0, 0.0000, 0.0000, 0.0000, 0.0000
0.9800, 0.0000, 0.0000, 0.0000, 0.0000, 0.0000, 0.0000, 0.0741, 0.0156, -0.0926, -0.0978, 0.0498, -0.0630, 387, 0, 0.0000, 0.0000, 0.0000, 0.0000
1.0000, 0.0000, 0.0000, 0.0000, 0.0000, 0.0000, 0.0000, 0.0756, 0.0177, -0.0930, -0.0920, 0.0506, -0.0652, 388, 0, 0.0000, 0.0000, 0.0000, 0.0000
1.0200, 0.0000, 0.0000, 0.0000, 0.0000, 0.0000, 0.0000, 0.0769, 0.0193, -0.0937, -0.0869, 0.0509, -0.0675, 389, 0, 0.0000, 0.0000, 0.0000, 0.0000
1.0400, 0.0000, 0.0000, 0.0000, 0.0000, 0.0000, 0.0000, 0.0783, 0.0215, -0.0942, -0.0811, 0.0530, -0.0697, 390, 0, 0.0000, 0.0000, 0.0000, 0.0000
1.0600, 0.0000, 0.0000, 0.0000, 0.0000, 0.0000, 0.0000, 0.0796, 0.0235, -0.0947, -0.0763, 0.0536, -0.0707, 391, 0, 0.0000, 0.0000, 0.0000, 0.0000
1.0800, 0.0000, 0.0000, 0.0000, 0.0000, 0.0000, 0.0000, 0.0809, 0.0255, -0.0950, -0.0705, 0.0539, -0.0717, 392, 0, 0.0000, 0.0000, 0.0000, 0.0000
1.1000, 0.0000, 0.0000, 0.0000, 0.0000, 0.0000, 0.0000, 0.0821, 0.0275, -0.0953, -0.0660, 0.0540, -0.0739, 393, 0, 0.0000, 0.0000, 0.0000, 0.0000
1.1200, 0.0000, 0.0000, 0.0000, 0.0000, 0.0000, 0.0000, 0.0834, 0.0292, -0.0953, -0.0608, 0.0534, -0.0767, 394, 0, 0.0000, 0.0000, 0.0000, 0.0000
1.1400, 0.0000, 0.0000, 0.0000, 0.0000, 0.0000, 0.0000, 0.0846, 0.0313, -0.0952, -0.0564, 0.0533, -0.0787, 395, 0, 0.0000, 0.0000, 0.0000, 0.0000
1.1600, 0.0000, 0.0000, 0.0000, 0.0000, 0.0000, 0.0000, 0.0858, 0.0329, -0.0952, -0.0514, 0.0533, -0.0816, 396, 0, 0.0000, 0.0000, 0.0000, 0.0000
1.1800, 0.0000, 0.0000, 0.0000, 0.0000, 0.0000, 0.0000, 0.0869, 0.0346, -0.0949, -0.0468, 0.0530, -0.0838, 397, 0, 0.0000, 0.0000, 0.0000, 0.0000
1.2000, 0.0000, 0.0000, 0.0000, 0.0000, 0.0000, 0.0000, 0.0882, 0.0364, -0.0946, -0.0419, 0.0525, -0.0854, 398, 0, 0.0000, 0.0000, 0.0000, 0.0000
1.2200, 0.0000, 0.0000, 0.0000, 0.0000, 0.0000, 0.0000, 0.0892, 0.0378, -0.0944, -0.0376, 0.0527, -0.0866, 399, 0, 0.0000, 0.0000, 0.0000, 0.0000
1.2400, 0.0000, 0.0000, 0.0000, 0.0000, 0.0000, 0.0000, 0.0903, 0.0393, -0.0941, -0.0327, 0.0539, -0.0877, 400, 0, 0.0000, 0.0000, 0.0000, 0.0000
1.2600, 0.0000, 0.0000, 0.0000, 0.0000, 0.0000, 0.0000, 0.0913, 0.0408, -0.0939, -0.0287, 0.0555, -0.0883, 401, 0, 0.0000, 0.0000, 0.0000, 0.0000
1.2800, 0.0000, 0.0000, 0.0000, 0.0000, 0.0000, 0.0000, 0.0924, 0.0421, -0.0936, -0.0246, 0.0572, -0.0891, 402, 0, 0.0000, 0.0000, 0.0000, 0.0000
1.3000, 0.0000, 0.0000, 0.0000, 0.0000, 0.0000, 0.0000, 0.0933, 0.0433, -0.0934, -0.0205, 0.0591, -0.0907, 403, 0, 0.0000, 0.0000, 0.0000, 0.0000
1.3200, 0.0000, 0.0000, 0.0000, 0.0000, 0.0000, 0.0000, 0.0940, 0.0442, -0.0931, -0.0168, 0.0610, -0.0916, 404, 0, 0.0000, 0.0000, 0.0000, 0.0000
1.3400, 0.0000, 0.0000, 0.0000, 0.0000, 0.0000, 0.0000, 0.0950, 0.0455, -0.0929, -0.0133, 0.0627, -0.0913, 405, 0, 0.0000, 0.0000, 0.0000, 0.0000
1.3600, 0.0000, 0.0000, 0.0000, 0.0000, 0.0000, 0.0000, 0.0959, 0.0465, -0.0929, -0.0097, 0.0642, -0.0907, 406, 0, 0.0000, 0.0000, 0.0000, 0.0000
1.3800, 0.0000, 0.0000, 0.0000, 0.0000, 0.0000, 0.0000, 0.0966, 0.0472, -0.0929, -0.0066, 0.0643, -0.0900, 407, 0, 0.0000, 0.0000, 0.0000, 0.0000
1.4000, 0.0000, 0.0000, 0.0000, 0.0000, 0.0000, 0.0000, 0.0974, 0.0480, -0.0930, -0.0036, 0.0636, -0.0889, 408, 0, 0.0000, 0.0000, 0.0000, 0.0000
1.4200, 0.0000, 0.0000, 0.0000, 0.0000, 0.0000, 0.0000, 0.0982, 0.0487, -0.0932, -0.0007, 0.0637, -0.0879, 409, 0, 0.0000, 0.0000, 0.0000, 0.0000
1.4400, 0.0000, 0.0000, 0.0000, 0.0000, 0.0000, 0.0000, 0.0988, 0.0494, -0.0934, 0.0023, 0.0622, -0.0868, 410, 0, 0.0000, 0.0000, 0.0000, 0.0000
1.4600, 0.0000, 0.0000, 0.0000, 0.0000, 0.0000, 0.0000, 0.0992, 0.0497, -0.0937, 0.0044, 0.0622, -0.0870, 411, 0, 0.0000, 0.0000, 0.0000, 0.0000
1.4800, 0.0000, 0.0000, 0.0000, 0.0000, 0.0000, 0.0000, 0.0997, 0.0502, -0.0938, 0.0069, 0.0620, -0.0868, 412, 0, 0.0000, 0.0000, 0.0000, 0.0000
1.5000, 0.0000, 0.0000, 0.0000, 0.0000, 0.0000, 0.0000, 0.1000, 0.0505, -0.0940, 0.0092, 0.0608, -0.0859, 413, 0, 0.0000, 0.0000, 0.0000, 0.0000
1.5190, 0.0000, 0.0000, 0.0000, 0.0000, 0.0000, 0.0000, 0.1003, 0.0508, -0.0940, 0.0117, 0.0597, -0.0855, 414, 0, 0.0000, 0.0000, 0.0000, 0.0000
1.5400, 0.0000, 0.0000, 0.0000, 0.0000, 0.0000, 0.0000, 0.1004, 0.0507, -0.0940, 0.0140, 0.0572, -0.0839, 415, 0, 0.0000, 0.0000, 0.0000, 0.0000
1.5600, 0.0000, 0.0000, 0.0000, 0.0000, 0.0000, 0.0000, 0.1007, 0.0511, -0.0940, 0.0160, 0.0562, -0.0833, 416, 0, 0.0000, 0.0000, 0.0000, 0.0000
1.5800, 0.0000, 0.0000, 0.0000, 0.0000, 0.0000, 0.0000, 0.1008, 0.0511, -0.0940, 0.0176, 0.0552, -0.0815, 417, 0, 0.0000, 0.0000, 0.0000, 0.0000
1.6000, 0.0000, 0.0000, 0.0000, 0.0000, 0.0000, 0.0000, 0.1010, 0.0509, -0.0939, 0.0195, 0.0536, -0.0812, 418, 0, 0.0000, 0.0000, 0.0000, 0.0000
1.6200, 0.0000, 0.0000, 0.0000, 0.0000, 0.0000, 0.0000, 0.1011, 0.0507, -0.0936, 0.0214, 0.0528, -0.0807, 419, 0, 0.0000, 0.0000, 0.0000, 0.0000
1.6400, 0.0000, 0.0000, 0.0000, 0.0000, 0.0000, 0.0000, 0.1012, 0.0506, -0.0934, 0.0229, 0.0524, -0.0798, 420, 0, 0.0000, 0.0000, 0.0000, 0.0000
1.6600, 0.0000, 0.0000, 0.0000, 0.0000, 0.0000, 0.0000, 0.1011, 0.0504, -0.0932, 0.0242, 0.0522, -0.0771, 421, 0, 0.0000, 0.0000, 0.0000, 0.0000
1.6800, 0.0000, 0.0000, 0.0000, 0.0000, 0.0000, 0.0000, 0.1011, 0.0501, -0.0930, 0.0257, 0.0515, -0.0759, 422, 0, 0.0000, 0.0000, 0.0000, 0.0000
1.7000, 0.0000, 0.0000, 0.0000, 0.0000, 0.0000, 0.0000, 0.1012, 0.0497, -0.0929, 0.0271, 0.0501, -0.0741, 423, 0, 0.0000, 0.0000, 0.0000, 0.0000
1.7200, 0.0000, 0.0000, 0.0000, 0.0000, 0.0000, 0.0000, 0.1011, 0.0495, -0.0926, 0.0283, 0.0491, -0.0733, 424, 0, 0.0000, 0.0000, 0.0000, 0.0000
1.7400, 0.0000, 0.0000, 0.0000, 0.0000, 0.0000, 0.0000, 0.1012, 0.0490, -0.0924, 0.0296, 0.0489, -0.0723, 425, 0, 0.0000, 0.0000, 0.0000, 0.0000
1.7600, 0.0000, 0.0000, 0.0000, 0.0000, 0.0000, 0.0000, 0.1011, 0.0485, -0.0923, 0.0308, 0.0492, -0.0701, 426, 0, 0.0000, 0.0000, 0.0000, 0.0000
1.7800, 0.0000, 0.0000, 0.0000, 0.0000, 0.0000, 0.0000, 0.1010, 0.0483, -0.0921, 0.0325, 0.0500, -0.0686, 427, 0, 0.0000, 0.0000, 0.0000, 0.0000
1.8000, 0.0000, 0.0000, 0.0000, 0.0000, 0.0000, 0.0000, 0.1006, 0.0478, -0.0919, 0.0332, 0.0495, -0.0674, 428, 0, 0.0000, 0.0000, 0.0000, 0.0000
1.8200, 0.0000, 0.0000, 0.0000, 0.0000, 0.0000, 0.0000, 0.1007, 0.0473, -0.0919, 0.0348, 0.0487, -0.0663, 429, 0, 0.0000, 0.0000, 0.0000, 0.0000
1.8400, 0.0000, 0.0000, 0.0000, 0.0000, 0.0000, 0.0000, 0.1008, 0.0469, -0.0919, 0.0355, 0.0472, -0.0650, 430, 0, 0.0000, 0.0000, 0.0000, 0.0000
1.8600, 0.0000, 0.0000, 0.0000, 0.0000, 0.0000, 0.0000, 0.1006, 0.0467, -0.0920, 0.0369, 0.0465, -0.0639, 431, 0, 0.0000, 0.0000, 0.0000, 0.0000
1.8800, 0.0000, 0.0000, 0.0000, 0.0000, 0.0000, 0.0000, 0.1005, 0.0462, -0.0920, 0.0376, 0.0462, -0.0634, 432, 0, 0.0000, 0.0000, 0.0000, 0.0000
1.9000, 0.0000, 0.0000, 0.0000, 0.0000, 0.0000, 0.0000, 0.1004, 0.0457, -0.0921, 0.0387, 0.0453, -0.0639, 433, 0, 0.0000, 0.0000, 0.0000, 0.0000
1.9200, 0.0000, 0.0000, 0.0000, 0.0000, 0.0000, 0.0000, 0.1003, 0.0453, -0.0924, 0.0393, 0.0440, -0.0633, 434, 0, 0.0000, 0.0000, 0.0000, 0.0000
1.9400, 0.0000, 0.0000, 0.0000, 0.0000, 0.0000, 0.0000, 0.1003, 0.0451, -0.0926, 0.0402, 0.0436, -0.0637, 435, 0, 0.0000, 0.0000, 0.0000, 0.0000
1.9600, 0.0000, 0.0000, 0.0000, 0.0000, 0.0000, 0.0000, 0.1002, 0.0444, -0.0930, 0.0405, 0.0430, -0.0630, 436, 0, 0.0000, 0.0000, 0.0000, 0.0000
1.9800, 0.0000, 0.0000, 0.0000, 0.0000, 0.0000, 0.0000, 0.1003, 0.0442, -0.0933, 0.0417, 0.0414, -0.0631, 437, 0, 0.0000, 0.0000, 0.0000, 0.0000
2.0000, 0.0000, 0.0000, 0.0000, 0.0000, 0.0000, 0.0000, 0.1003, 0.0436, -0.0935, 0.0424, 0.0395, -0.0627, 438, 0, 0.0000, 0.0000, 0.0000, 0.0000
2.0200, 0.0000, 0.0000, 0.0000, 0.0000, 0.0000, 0.0000, 0.1005, 0.0435, -0.0941, 0.0432, 0.0389, -0.0622, 439, 0, 0.0000, 0.0000, 0.0000, 0.0000
2.0400, 0.0000, 0.0000, 0.0000, 0.0000, 0.0000, 0.0000, 0.1006, 0.0428, -0.0946, 0.0436, 0.0381, -0.0628, 440, 0, 0.0000, 0.0000, 0.0000, 0.0000
2.0600, 0.0000, 0.0000, 0.0000, 0.0000, 0.0000, 0.0000, 0.1006, 0.0425, -0.0947, 0.0439, 0.0365, -0.0635, 441, 0, 0.0000, 0.0000, 0.0000, 0.0000
2.0800, 0.0000, 0.0000, 0.0000, 0.0000, 0.0000, 0.0000, 0.1009, 0.0422, -0.0950, 0.0442, 0.0360, -0.0640, 442, 0, 0.0000, 0.0000, 0.0000, 0.0000
2.1000, 0.0000, 0.0000, 0.0000, 0.0000, 0.0000, 0.0000, 0.1010, 0.0419, -0.0953, 0.0445, 0.0362, -0.0639, 443, 0, 0.0000, 0.0000, 0.0000, 0.0000
2.1200, 0.0000, 0.0000, 0.0000, 0.0000, 0.0000, 0.0000, 0.1011, 0.0415, -0.0954, 0.0448, 0.0366, -0.0629, 444, 0, 0.0000, 0.0000, 0.0000, 0.0000
2.1400, 0.0000, 0.0000, 0.0000, 0.0000, 0.0000, 0.0000, 0.1013, 0.0414, -0.0955, 0.0453, 0.0383, -0.0622, 445, 0, 0.0000, 0.0000, 0.0000, 0.0000
2.1600, 0.0000, 0.0000, 0.0000, 0.0000, 0.0000, 0.0000, 0.1015, 0.0412, -0.0956, 0.0458, 0.0403, -0.0600, 446, 0, 0.0000, 0.0000, 0.0000, 0.0000
2.1800, 0.0000, 0.0000, 0.0000, 0.0000, 0.0000, 0.0000, 0.1015, 0.0410, -0.0955, 0.0461, 0.0409, -0.0586, 447, 0, 0.0000, 0.0000, 0.0000, 0.0000
2.2000, 0.0000, 0.0000, 0.0000, 0.0000, 0.0000, 0.0000, 0.1017, 0.0406, -0.0953, 0.0462, 0.0414, -0.0585, 448, 0, 0.0000, 0.0000, 0.0000, 0.0000
2.2200, 0.0000, 0.0000, 0.0000, 0.0000, 0.0000, 0.0000, 0.1019, 0.0404, -0.0950, 0.0464, 0.0412, -0.0590, 449, 0, 0.0000, 0.0000, 0.0000, 0.0000
2.2400, 0.0000, 0.0000, 0.0000, 0.0000, 0.0000, 0.0000, 0.1025, 0.0403, -0.0948, 0.0470, 0.0410, -0.0589, 450, 0, 0.0000, 0.0000, 0.0000, 0.0000
2.2600, 0.0000, 0.0000, 0.0000, 0.0000, 0.0000, 0.0000, 0.1027, 0.0400, -0.0944, 0.0470, 0.0396, -0.0583, 451, 0, 0.0000, 0.0000, 0.0000, 0.0000
2.2800, 0.0000, 0.0000, 0.0000, 0.0000, 0.0000, 0.0000, 0.1030, 0.0399, -0.0941, 0.0474, 0.0414, -0.0584, 452, 0, 0.0000, 0.0000, 0.0000, 0.0000
2.3000, 0.0000, 0.0000, 0.0000, 0.0000, 0.0000, 0.0000, 0.1035, 0.0399, -0.0937, 0.0475, 0.0414, -0.0599, 453, 0, 0.0000, 0.0000, 0.0000, 0.0000
2.3200, 0.0000, 0.0000, 0.0000, 0.0000, 0.0000, 0.0000, 0.1039, 0.0396, -0.0933, 0.0478, 0.0416, -0.0621, 454, 0, 0.0000, 0.0000, 0.0000, 0.0000
2.3400, 0.0000, 0.0000, 0.0000, 0.0000, 0.0000, 0.0000, 0.1045, 0.0395, -0.0931, 0.0480, 0.0422, -0.0638, 455, 0, 0.0000, 0.0000, 0.0000, 0.0000
2.3600, 0.0000, 0.0000, 0.0000, 0.0000, 0.0000, 0.0000, 0.1050, 0.0393, -0.0929, 0.0482, 0.0423, -0.0648, 456, 0, 0.0000, 0.0000, 0.0000, 0.0000
2.3800, 0.0000, 0.0000, 0.0000, 0.0000, 0.0000, 0.0000, 0.1056, 0.0393, -0.0929, 0.0484, 0.0425, -0.0639, 457, 0, 0.0000, 0.0000, 0.0000, 0.0000
2.4000, 0.0000, 0.0000, 0.0000, 0.0000, 0.0000, 0.0000, 0.1062, 0.0392, -0.0928, 0.0488, 0.0430, -0.0641, 458, 0, 0.0000, 0.0000, 0.0000, 0.0000
2.4200, 0.0000, 0.0000, 0.0000, 0.0000, 0.0000, 0.0000, 0.1067, 0.0391, -0.0926, 0.0488, 0.0430, -0.0640, 459, 0, 0.0000, 0.0000, 0.0000, 0.0000
2.4400, 0.0000, 0.0000, 0.0000, 0.0000, 0.0000, 0.0000, 0.1075, 0.0392, -0.0927, 0.0495, 0.0441, -0.0639, 460, 0, 0.0000, 0.0000, 0.0000, 0.0000
2.4600, 0.0000, 0.0000, 0.0000, 0.0000, 0.0000, 0.0000, 0.1079, 0.0393, -0.0927, 0.0492, 0.0436, -0.0635, 461, 0, 0.0000, 0.0000, 0.0000, 0.0000
2.4800, 0.0000, 0.0000, 0.0000, 0.0000, 0.0000, 0.0000, 0.1085, 0.0392, -0.0928, 0.0497, 0.0439, -0.0635, 462, 0, 0.0000, 0.0000, 0.0000, 0.0000
2.5000, 0.0000, 0.0000, 0.0000, 0.0000, 0.0000, 0.0000, 0.1090, 0.0393, -0.0929, 0.0499, 0.0446, -0.0638, 463, 0, 0.0000, 0.0000, 0.0000, 0.0000
2.5200, 0.0000, 0.0000, 0.0000, 0.0000, 0.0000, 0.0000, 0.1095, 0.0393, -0.0928, 0.0503, 0.0462, -0.0647, 464, 0, 0.0000, 0.0000, 0.0000, 0.0000
2.5400, 0.0000, 0.0000, 0.0000, 0.0000, 0.0000, 0.0000, 0.1101, 0.0393, -0.0930, 0.0503, 0.0470, -0.0663, 465, 0, 0.0000, 0.0000, 0.0000, 0.0000
2.5600, 0.0000, 0.0000, 0.0000, 0.0000, 0.0000, 0.0000, 0.1106, 0.0392, -0.0929, 0.0505, 0.0463, -0.0674, 466, 0, 0.0000, 0.0000, 0.0000, 0.0000
2.5800, 0.0000, 0.0000, 0.0000, 0.0000, 0.0000, 0.0000, 0.1111, 0.0394, -0.0931, 0.0507, 0.0466, -0.0675, 467, 0, 0.0000, 0.0000, 0.0000, 0.0000
2.6000, 0.0000, 0.0000, 0.0000, 0.0000, 0.0000, 0.0000, 0.1119, 0.0396, -0.0931, 0.0508, 0.0478, -0.0689, 468, 0, 0.0000, 0.0000, 0.0000, 0.0000
2.6200, 0.0000, 0.0000, 0.0000, 0.0000, 0.0000, 0.0000, 0.1123, 0.0395, -0.0932, 0.0507, 0.0475, -0.0692, 469, 0, 0.0000, 0.0000, 0.0000, 0.0000
2.6400, 0.0000, 0.0000, 0.0000, 0.0000, 0.0000, 0.0000, 0.1131, 0.0396, -0.0932, 0.0510, 0.0481, -0.0688, 470, 0, 0.0000, 0.0000, 0.0000, 0.0000
2.6600, 0.0000, 0.0000, 0.0000, 0.0000, 0.0000, 0.0000, 0.1136, 0.0399, -0.0932, 0.0509, 0.0478, -0.0683, 471, 0, 0.0000, 0.0000, 0.0000, 0.0000
2.6800, 0.0000, 0.0000, 0.0000, 0.0000, 0.0000, 0.0000, 0.1143, 0.0399, -0.0931, 0.0512, 0.0470, -0.0672, 472, 0, 0.0000, 0.0000, 0.0000, 0.0000
2.7000, 0.0000, 0.0000, 0.0000, 0.0000, 0.0000, 0.0000, 0.1151, 0.0400, -0.0930, 0.0511, 0.0455, -0.0671, 473, 0, 0.0000, 0.0000, 0.0000, 0.0000
2.7200, 0.0000, 0.0000, 0.0000, 0.0000, 0.0000, 0.0000, 0.1159, 0.0400, -0.0927, 0.0516, 0.0438, -0.0668, 474, 0, 0.0000, 0.0000, 0.0000, 0.0000
2.7400, 0.0000, 0.0000, 0.0000, 0.0000, 0.0000, 0.0000, 0.1167, 0.0401, -0.0926, 0.0514, 0.0443, -0.0670, 475, 0, 0.0000, 0.0000, 0.0000, 0.0000
2.7600, 0.0000, 0.0000, 0.0000, 0.0000, 0.0000, 0.0000, 0.1173, 0.0402, -0.0922, 0.0514, 0.0441, -0.0665, 476, 0, 0.0000, 0.0000, 0.0000, 0.0000
2.7800, 0.0000, 0.0000, 0.0000, 0.0000, 0.0000, 0.0000, 0.1180, 0.0402, -0.0920, 0.0515, 0.0437, -0.0663, 477, 0, 0.0000, 0.0000, 0.0000, 0.0000
2.8000, 0.0000, 0.0000, 0.0000, 0.0000, 0.0000, 0.0000, 0.1187, 0.0402, -0.0916, 0.0516, 0.0441, -0.0658, 478, 0, 0.0000, 0.0000, 0.0000, 0.0000
2.8200, 0.0000, 0.0000, 0.0000, 0.0000, 0.0000, 0.0000, 0.1194, 0.0403, -0.0913, 0.0516, 0.0443, -0.0653, 479, 0, 0.0000, 0.0000, 0.0000, 0.0000
2.8400, 0.0000, 0.0000, 0.0000, 0.0000, 0.0000, 0.0000, 0.1201, 0.0403, -0.0910, 0.0516, 0.0445, -0.0626, 480, 0, 0.0000, 0.0000, 0.0000, 0.0000
2.8600, 0.0000, 0.0000, 0.0000, 0.0000, 0.0000, 0.0000, 0.1207, 0.0405, -0.0906, 0.0514, 0.0451, -0.0613, 481, 0, 0.0000, 0.0000, 0.0000, 0.0000
2.8800, 0.0000, 0.0000, 0.0000, 0.0000, 0.0000, 0.0000, 0.1214, 0.0406, -0.0902, 0.0518, 0.0451, -0.0594, 482, 0, 0.0000, 0.0000, 0.0000, 0.0000
2.9000, 0.0000, 0.0000, 0.0000, 0.0000, 0.0000, 0.0000, 0.1220, 0.0409, -0.0897, 0.0518, 0.0444, -0.0592, 483, 0, 0.0000, 0.0000, 0.0000, 0.0000
2.9200, 0.0000, 0.0000, 0.0000, 0.0000, 0.0000, 0.0000, 0.1226, 0.0408, -0.0893, 0.0519, 0.0460, -0.0594, 484, 0, 0.0000, 0.0000, 0.0000, 0.0000
2.9400, 0.0000, 0.0000, 0.0000, 0.0000, 0.0000, 0.0000, 0.1232, 0.0410, -0.0889, 0.0518, 0.0469, -0.0600, 485, 0, 0.0000, 0.0000, 0.0000, 0.0000
2.9600, 0.0000, 0.0000, 0.0000, 0.0000, 0.0000, 0.0000, 0.1239, 0.0413, -0.0886, 0.0517, 0.0480, -0.0613, 486, 0, 0.0000, 0.0000, 0.0000, 0.0000
2.9800, 0.0000, 0.0000, 0.0000, 0.0000, 0.0000, 0.0000, 0.1243, 0.0412, -0.0885, 0.0514, 0.0489, -0.0622, 487, 0, 0.0000, 0.0000, 0.0000, 0.0000
3.0000, 0.0000, 0.0000, 0.0000, 0.0000, 0.0000, 0.0000, 0.1248, 0.0415, -0.0884, 0.0513, 0.0491, -0.0623, 488, 0, 0.0000, 0.0000, 0.0000, 0.0000
3.0200, 0.0000, 0.0000, 0.0000, 0.0000, 0.0000, 0.0000, 0.1254, 0.0415, -0.0886, 0.0511, 0.0492, -0.0618, 489, 0, 0.0000, 0.0000, 0.0000, 0.0000
3.0400, 0.0000, 0.0000, 0.0000, 0.0000, 0.0000, 0.0000, 0.1260, 0.0419, -0.0886, 0.0508, 0.0487, -0.0621, 490, 0, 0.0000, 0.0000, 0.0000, 0.0000
3.0600, 0.0000, 0.0000, 0.0000, 0.0000, 0.0000, 0.0000, 0.1264, 0.0420, -0.0887, 0.0506, 0.0483, -0.0618, 491, 0, 0.0000, 0.0000, 0.0000, 0.0000
3.0800, 0.0000, 0.0000, 0.0000, 0.0000, 0.0000, 0.0000, 0.1270, 0.0420, -0.0890, 0.0509, 0.0486, -0.0609, 492, 0, 0.0000, 0.0000, 0.0000, 0.0000
3.1000, 0.0000, 0.0000, 0.0000, 0.0000, 0.0000, 0.0000, 0.1273, 0.0425, -0.0891, 0.0509, 0.0488, -0.0592, 493, 0, 0.0000, 0.0000, 0.0000, 0.0000
3.1200, 0.0000, 0.0000, 0.0000, 0.0000, 0.0000, 0.0000, 0.1279, 0.0428, -0.0895, 0.0512, 0.0491, -0.0579, 494, 0, 0.0000, 0.0000, 0.0000, 0.0000
3.1400, 0.0000, 0.0000, 0.0000, 0.0000, 0.0000, 0.0000, 0.1282, 0.0429, -0.0897, 0.0510, 0.0493, -0.0576, 495, 0, 0.0000, 0.0000, 0.0000, 0.0000
3.1600, 0.0000, 0.0000, 0.0000, 0.0000, 0.0000, 0.0000, 0.1286, 0.0431, -0.0898, 0.0514, 0.0483, -0.0572, 496, 0, 0.0000, 0.0000, 0.0000, 0.0000
3.1800, 0.0000, 0.0000, 0.0000, 0.0000, 0.0000, 0.0000, 0.1289, 0.0433, -0.0900, 0.0514, 0.0468, -0.0568, 497, 0, 0.0000, 0.0000, 0.0000, 0.0000
3.2000, 0.0000, 0.0000, 0.0000, 0.0000, 0.0000, 0.0000, 0.1293, 0.0438, -0.0901, 0.0516, 0.0472, -0.0568, 498, 0, 0.0000, 0.0000, 0.0000, 0.0000
3.2200, 0.0000, 0.0000, 0.0000, 0.0000, 0.0000, 0.0000, 0.1294, 0.0439, -0.0903, 0.0513, 0.0477, -0.0567, 499, 0, 0.0000, 0.0000, 0.0000, 0.0000
3.2400, 0.0000, 0.0000, 0.0000, 0.0000, 0.0000, 0.0000, 0.1297, 0.0444, -0.0904, 0.0516, 0.0492, -0.0569, 500, 0, 0.0000, 0.0000, 0.0000, 0.0000
3.2600, 0.0000, 0.0000, 0.0000, 0.0000, 0.0000, 0.0000, 0.1298, 0.0447, -0.0906, 0.0514, 0.0498, -0.0573, 501, 0, 0.0000, 0.0000, 0.0000, 0.0000
3.2800, 0.0000, 0.0000, 0.0000, 0.0000, 0.0000, 0.0000, 0.1300, 0.0451, -0.0907, 0.0510, 0.0495, -0.0598, 502, 0, 0.0000, 0.0000, 0.0000, 0.0000
3.3000, 0.0000, 0.0000, 0.0000, 0.0000, 0.0000, 0.0000, 0.1302, 0.0454, -0.0907, 0.0509, 0.0490, -0.0610, 503, 0, 0.0000, 0.0000, 0.0000, 0.0000
3.3190, 0.0000, 0.0000, 0.0000, 0.0000, 0.0000, 0.0000, 0.1303, 0.0459, -0.0910, 0.0510, 0.0479, -0.0626, 504, 0, 0.0000, 0.0000, 0.0000, 0.0000
3.3400, 0.0000, 0.0000, 0.0000, 0.0000, 0.0000, 0.0000, 0.1304, 0.0461, -0.0913, 0.0504, 0.0467, -0.0630, 505, 0, 0.0000, 0.0000, 0.0000, 0.0000
3.3600, 0.0000, 0.0000, 0.0000, 0.0000, 0.0000, 0.0000, 0.1308, 0.0466, -0.0917, 0.0506, 0.0457, -0.0637, 506, 0, 0.0000, 0.0000, 0.0000, 0.0000
3.3800, 0.0000, 0.0000, 0.0000, 0.0000, 0.0000, 0.0000, 0.1308, 0.0469, -0.0920, 0.0505, 0.0452, -0.0633, 507, 0, 0.0000, 0.0000, 0.0000, 0.0000
3.4000, 0.0000, 0.0000, 0.0000, 0.0000, 0.0000, 0.0000, 0.1311, 0.0476, -0.0923, 0.0509, 0.0459, -0.0636, 508, 0, 0.0000, 0.0000, 0.0000, 0.0000
3.4200, 0.0000, 0.0000, 0.0000, 0.0000, 0.0000, 0.0000, 0.1311, 0.0478, -0.0926, 0.0506, 0.0453, -0.0643, 509, 0, 0.0000, 0.0000, 0.0000, 0.0000
3.4400, 0.0000, 0.0000, 0.0000, 0.0000, 0.0000, 0.0000, 0.1312, 0.0483, -0.0927, 0.0511, 0.0456, -0.0680, 510, 0, 0.0000, 0.0000, 0.0000, 0.0000
3.4600, 0.0000, 0.0000, 0.0000, 0.0000, 0.0000, 0.0000, 0.1313, 0.0484, -0.0929, 0.0507, 0.0461, -0.0708, 511, 0, 0.0000, 0.0000, 0.0000, 0.0000
3.4800, 0.0000, 0.0000, 0.0000, 0.0000, 0.0000, 0.0000, 0.1314, 0.0490, -0.0930, 0.0513, 0.0468, -0.0723, 512, 0, 0.0000, 0.0000, 0.0000, 0.0000
3.5000, 0.0000, 0.0000, 0.0000, 0.0000, 0.0000, 0.0000, 0.1314, 0.0494, -0.0933, 0.0513, 0.0475, -0.0714, 513, 0, 0.0000, 0.0000, 0.0000, 0.0000
3.5200, 0.0000, 0.0000, 0.0000, 0.0000, 0.0000, 0.0000, 0.1315, 0.0497, -0.0936, 0.0514, 0.0484, -0.0697, 514, 0, 0.0000, 0.0000, 0.0000, 0.0000
3.5400, 0.0000, 0.0000, 0.0000, 0.0000, 0.0000, 0.0000, 0.1315, 0.0502, -0.0940, 0.0514, 0.0497, -0.0680, 515, 0, 0.0000, 0.0000, 0.0000, 0.0000
3.5600, 0.0000, 0.0000, 0.0000, 0.0000, 0.0000, 0.0000, 0.1314, 0.0507, -0.0941, 0.0511, 0.0497, -0.0671, 516, 0, 0.0000, 0.0000, 0.0000, 0.0000
3.5800, 0.0000, 0.0000, 0.0000, 0.0000, 0.0000, 0.0000, 0.1312, 0.0508, -0.0946, 0.0505, 0.0497, -0.0658, 517, 0, 0.0000, 0.0000, 0.0000, 0.0000
3.6000, 0.0000, 0.0000, 0.0000, 0.0000, 0.0000, 0.0000, 0.1312, 0.0512, -0.0950, 0.0511, 0.0506, -0.0651, 518, 0, 0.0000, 0.0000, 0.0000, 0.0000
3.6200, 0.0000, 0.0000, 0.0000, 0.0000, 0.0000, 0.0000, 0.1309, 0.0516, -0.0954, 0.0501, 0.0497, -0.0648, 519, 0, 0.0000, 0.0000, 0.0000, 0.0000
3.6400, 0.0000, 0.0000, 0.0000, 0.0000, 0.0000, 0.0000, 0.1309, 0.0520, -0.0956, 0.0500, 0.0484, -0.0658, 520, 0, 0.0000, 0.0000, 0.0000, 0.0000
3.6600, 0.0000, 0.0000, 0.0000, 0.0000, 0.0000, 0.0000, 0.1307, 0.0520, -0.0959, 0.0492, 0.0476, -0.0669, 521, 0, 0.0000, 0.0000, 0.0000, 0.0000
3.6800, 0.0000, 0.0000, 0.0000, 0.0000, 0.0000, 0.0000, 0.1306, 0.0523, -0.0962, 0.0496, 0.0477, -0.0658, 522, 0, 0.0000, 0.0000, 0.0000, 0.0000
3.7000, 0.0000, 0.0000, 0.0000, 0.0000, 0.0000, 0.0000, 0.1305, 0.0528, -0.0964, 0.0496, 0.0477, -0.0645, 523, 0, 0.0000, 0.0000, 0.0000, 0.0000
3.7200, 0.0000, 0.0000, 0.0000, 0.0000, 0.0000, 0.0000, 0.1304, 0.0531, -0.0965, 0.0494, 0.0471, -0.0645, 524, 0, 0.0000, 0.0000, 0.0000, 0.0000
3.7400, 0.0000, 0.0000, 0.0000, 0.0000, 0.0000, 0.0000, 0.1302, 0.0532, -0.0966, 0.0492, 0.0454, -0.0641, 525, 0, 0.0000, 0.0000, 0.0000, 0.0000
3.7600, 0.0000, 0.0000, 0.0000, 0.0000, 0.0000, 0.0000, 0.1302, 0.0536, -0.0965, 0.0492, 0.0453, -0.0651, 526, 0, 0.0000, 0.0000, 0.0000, 0.0000
3.7800, 0.0000, 0.0000, 0.0000, 0.0000, 0.0000, 0.0000, 0.1299, 0.0540, -0.0964, 0.0486, 0.0443, -0.0640, 527, 0, 0.0000, 0.0000, 0.0000, 0.0000
3.8000, 0.0000, 0.0000, 0.0000, 0.0000, 0.0000, 0.0000, 0.1298, 0.0543, -0.0962, 0.0484, 0.0443, -0.0659, 528, 0, 0.0000, 0.0000, 0.0000, 0.0000
3.8200, 0.0000, 0.0000, 0.0000, 0.0000, 0.0000, 0.0000, 0.1297, 0.0546, -0.0959, 0.0482, 0.0427, -0.0665, 529, 0, 0.0000, 0.0000, 0.0000, 0.0000
3.8400, 0.0000, 0.0000, 0.0000, 0.0000, 0.0000, 0.0000, 0.1298, 0.0552, -0.0957, 0.0483, 0.0430, -0.0661, 530, 0, 0.0000, 0.0000, 0.0000, 0.0000
3.8600, 0.0000, 0.0000, 0.0000, 0.0000, 0.0000, 0.0000, 0.1296, 0.0556, -0.0954, 0.0480, 0.0419, -0.0658, 531, 0, 0.0000, 0.0000, 0.0000, 0.0000
3.8800, 0.0000, 0.0000, 0.0000, 0.0000, 0.0000, 0.0000, 0.1295, 0.0559, -0.0951, 0.0480, 0.0409, -0.0656, 532, 0, 0.0000, 0.0000, 0.0000, 0.0000
3.9000, 0.0000, 0.0000, 0.0000, 0.0000, 0.0000, 0.0000, 0.1296, 0.0563, -0.0950, 0.0480, 0.0410, -0.0656, 533, 0, 0.0000, 0.0000, 0.0000, 0.0000
3.9200, 0.0000, 0.0000, 0.0000, 0.0000, 0.0000, 0.0000, 0.1296, 0.0569, -0.0946, 0.0477, 0.0402, -0.0652, 534, 0, 0.0000, 0.0000, 0.0000, 0.0000
3.9400, 0.0000, 0.0000, 0.0000, 0.0000, 0.0000, 0.0000, 0.1297, 0.0572, -0.0944, 0.0475, 0.0400, -0.0659, 535, 0, 0.0000, 0.0000, 0.0000, 0.0000
3.9600, 0.0000, 0.0000, 0.0000, 0.0000, 0.0000, 0.0000, 0.1297, 0.0575, -0.0941, 0.0472, 0.0401, -0.0670, 536, 0, 0.0000, 0.0000, 0.0000, 0.0000
3.9800, 0.0000, 0.0000, 0.0000, 0.0000, 0.0000, 0.0000, 0.1299, 0.0580, -0.0937, 0.0470, 0.0387, -0.0677, 537, 0, 0.0000, 0.0000, 0.0000, 0.0000
4.0000, 0.0000, 0.0000, 0.0000, 0.0000, 0.0000, 0.0000, 0.1300, 0.0585, -0.0934, 0.0470, 0.0409, -0.0679, 538, 0, 0.0000, 0.0000, 0.0000, 0.0000
4.0200, 0.0000, 0.0000, 0.0000, 0.0000, 0.0000, 0.0000, 0.1300, 0.0589, -0.0931, 0.0468, 0.0428, -0.0681, 539, 0, 0.0000, 0.0000, 0.0000, 0.0000
4.0400, 0.0000, 0.0000, 0.0000, 0.0000, 0.0000, 0.0000, 0.1301, 0.0592, -0.0928, 0.0468, 0.0445, -0.0684, 540, 0, 0.0000, 0.0000, 0.0000, 0.0000
4.0600, 0.0000, 0.0000, 0.0000, 0.0000, 0.0000, 0.0000, 0.1304, 0.0598, -0.0922, 0.0467, 0.0460, -0.0703, 541, 0, 0.0000, 0.0000, 0.0000, 0.0000
4.0800, 0.0000, 0.0000, 0.0000, 0.0000, 0.0000, 0.0000, 0.1307, 0.0601, -0.0918, 0.0469, 0.0457, -0.0717, 542, 0, 0.0000, 0.0000, 0.0000, 0.0000
4.1000, 0.0000, 0.0000, 0.0000, 0.0000, 0.0000, 0.0000, 0.1309, 0.0603, -0.0915, 0.0467, 0.0465, -0.0730, 543, 0, 0.0000, 0.0000, 0.0000, 0.0000
4.1200, 0.0000, 0.0000, 0.0000, 0.0000, 0.0000, 0.0000, 0.1311, 0.0607, -0.0910, 0.0468, 0.0466, -0.0735, 544, 0, 0.0000, 0.0000, 0.0000, 0.0000
4.1400, 0.0000, 0.0000, 0.0000, 0.0000, 0.0000, 0.0000, 0.1314, 0.0611, -0.0906, 0.0466, 0.0470, -0.0725, 545, 0, 0.0000, 0.0000, 0.0000, 0.0000
4.1600, 0.0000, 0.0000, 0.0000, 0.0000, 0.0000, 0.0000, 0.1317, 0.0615, -0.0903, 0.0465, 0.0479, -0.0718, 546, 0, 0.0000, 0.0000, 0.0000, 0.0000
4.1800, 0.0000, 0.0000, 0.0000, 0.0000, 0.0000, 0.0000, 0.1318, 0.0617, -0.0901, 0.0465, 0.0492, -0.0716, 547, 0, 0.0000, 0.0000, 0.0000, 0.0000
4.2000, 0.0000, 0.0000, 0.0000, 0.0000, 0.0000, 0.0000, 0.1321, 0.0620, -0.0900, 0.0468, 0.0496, -0.0698, 548, 0, 0.0000, 0.0000, 0.0000, 0.0000
4.2200, 0.0000, 0.0000, 0.0000, 0.0000, 0.0000, 0.0000, 0.1324, 0.0625, -0.0899, 0.0467, 0.0499, -0.0698, 549, 0, 0.0000, 0.0000, 0.0000, 0.0000
4.2400, 0.0000, 0.0000, 0.0000, 0.0000, 0.0000, 0.0000, 0.1326, 0.0627, -0.0901, 0.0461, 0.0485, -0.0692, 550, 0, 0.0000, 0.0000, 0.0000, 0.0000
4.2600, 0.0000, 0.0000, 0.0000, 0.0000, 0.0000, 0.0000, 0.1329, 0.0631, -0.0902, 0.0464, 0.0476, -0.0687, 551, 0, 0.0000, 0.0000, 0.0000, 0.0000
4.2800, 0.0000, 0.0000, 0.0000, 0.0000, 0.0000, 0.0000, 0.1329, 0.0635, -0.0904, 0.0464, 0.0478, -0.0693, 552, 0, 0.0000, 0.0000, 0.0000, 0.0000
4.3000, 0.0000, 0.0000, 0.0000, 0.0000, 0.0000, 0.0000, 0.1330, 0.0638, -0.0905, 0.0468, 0.0482, -0.0701, 553, 0, 0.0000, 0.0000, 0.0000, 0.0000
4.3200, 0.0000, 0.0000, 0.0000, 0.0000, 0.0000, 0.0000, 0.1331, 0.0638, -0.0907, 0.0466, 0.0487, -0.0711, 554, 0, 0.0000, 0.0000, 0.0000, 0.0000
4.3400, 0.0000, 0.0000, 0.0000, 0.0000, 0.0000, 0.0000, 0.1332, 0.0639, -0.0907, 0.0469, 0.0483, -0.0723, 555, 0, 0.0000, 0.0000, 0.0000, 0.0000
4.3600, 0.0000, 0.0000, 0.0000, 0.0000, 0.0000, 0.0000, 0.1333, 0.0643, -0.0908, 0.0472, 0.0497, -0.0729, 556, 0, 0.0000, 0.0000, 0.0000, 0.0000
4.3800, 0.0000, 0.0000, 0.0000, 0.0000, 0.0000, 0.0000, 0.1333, 0.0644, -0.0909, 0.0471, 0.0496, -0.0729, 557, 0, 0.0000, 0.0000, 0.0000, 0.0000
4.4000, 0.0000, 0.0000, 0.0000, 0.0000, 0.0000, 0.0000, 0.1332, 0.0644, -0.0910, 0.0471, 0.0489, -0.0720, 558, 0, 0.0000, 0.0000, 0.0000, 0.0000
4.4200, 0.0000, 0.0000, 0.0000, 0.0000, 0.0000, 0.0000, 0.1333, 0.0647, -0.0910, 0.0473, 0.0490, -0.0725, 559, 0, 0.0000, 0.0000, 0.0000, 0.0000
4.4400, 0.0000, 0.0000, 0.0000, 0.0000, 0.0000, 0.0000, 0.1333, 0.0648, -0.0911, 0.0469, 0.0473, -0.0721, 560, 0, 0.0000, 0.0000, 0.0000, 0.0000
4.4600, 0.0000, 0.0000, 0.0000, 0.0000, 0.0000, 0.0000, 0.1333, 0.0648, -0.0914, 0.0470, 0.0464, -0.0714, 561, 0, 0.0000, 0.0000, 0.0000, 0.0000
4.4800, 0.0000, 0.0000, 0.0000, 0.0000, 0.0000, 0.0000, 0.1332, 0.0648, -0.0915, 0.0466, 0.0462, -0.0725, 562, 0, 0.0000, 0.0000, 0.0000, 0.0000
4.5000, 0.0000, 0.0000, 0.0000, 0.0000, 0.0000, 0.0000, 0.1332, 0.0650, -0.0916, 0.0470, 0.0454, -0.0725, 563, 0, 0.0000, 0.0000, 0.0000, 0.0000
4.5200, 0.0000, 0.0000, 0.0000, 0.0000, 0.0000, 0.0000, 0.1331, 0.0651, -0.0919, 0.0468, 0.0453, -0.0717, 564, 0, 0.0000, 0.0000, 0.0000, 0.0000
4.5400, 0.0000, 0.0000, 0.0000, 0.0000, 0.0000, 0.0000, 0.1331, 0.0650, -0.0923, 0.0468, 0.0450, -0.0702, 565, 0, 0.0000, 0.0000, 0.0000, 0.0000
4.5600, 0.0000, 0.0000, 0.0000, 0.0000, 0.0000, 0.0000, 0.1330, 0.0649, -0.0923, 0.0466, 0.0455, -0.0692, 566, 0, 0.0000, 0.0000, 0.0000, 0.0000
4.5800, 0.0000, 0.0000, 0.0000, 0.0000, 0.0000, 0.0000, 0.1330, 0.0649, -0.0924, 0.0467, 0.0461, -0.0691, 567, 0, 0.0000, 0.0000, 0.0000, 0.0000
4.6000, 0.0000, 0.0000, 0.0000, 0.0000, 0.0000, 0.0000, 0.1327, 0.0649, -0.0922, 0.0468, 0.0455, -0.0690, 568, 0, 0.0000, 0.0000, 0.0000, 0.0000
4.6200, 0.0000, 0.0000, 0.0000, 0.0000, 0.0000, 0.0000, 0.1328, 0.0647, -0.0924, 0.0469, 0.0457, -0.0692, 569, 0, 0.0000, 0.0000, 0.0000, 0.0000
4.6400, 0.0000, 0.0000, 0.0000, 0.0000, 0.0000, 0.0000, 0.1326, 0.0646, -0.0921, 0.0465, 0.0446, -0.0682, 570, 0, 0.0000, 0.0000, 0.0000, 0.0000
4.6600, 0.0000, 0.0000, 0.0000, 0.0000, 0.0000, 0.0000, 0.1326, 0.0647, -0.0919, 0.0464, 0.0443, -0.0671, 571, 0, 0.0000, 0.0000, 0.0000, 0.0000
4.6790, 0.0000, 0.0000, 0.0000, 0.0000, 0.0000, 0.0000, 0.1324, 0.0646, -0.0917, 0.0461, 0.0440, -0.0659, 572, 0, 0.0000, 0.0000, 0.0000, 0.0000
4.7000, 0.0000, 0.0000, 0.0000, 0.0000, 0.0000, 0.0000, 0.1324, 0.0645, -0.0913, 0.0462, 0.0424, -0.0643, 573, 0, 0.0000, 0.0000, 0.0000, 0.0000
4.7200, 0.0000, 0.0000, 0.0000, 0.0000, 0.0000, 0.0000, 0.1323, 0.0645, -0.0908, 0.0462, 0.0413, -0.0635, 574, 0, 0.0000, 0.0000, 0.0000, 0.0000
4.7400, 0.0000, 0.0000, 0.0000, 0.0000, 0.0000, 0.0000, 0.1322, 0.0644, -0.0903, 0.0462, 0.0405, -0.0623, 575, 0, 0.0000, 0.0000, 0.0000, 0.0000
4.7600, 0.0000, 0.0000, 0.0000, 0.0000, 0.0000, 0.0000, 0.1321, 0.0642, -0.0898, 0.0462, 0.0402, -0.0614, 576, 0, 0.0000, 0.0000, 0.0000, 0.0000
4.7800, 0.0000, 0.0000, 0.0000, 0.0000, 0.0000, 0.0000, 0.1319, 0.0641, -0.0893, 0.0466, 0.0399, -0.0617, 577, 0, 0.0000, 0.0000, 0.0000, 0.0000
4.7990, 0.0000, 0.0000, 0.0000, 0.0000, 0.0000, 0.0000, 0.1318, 0.0640, -0.0885, 0.0468, 0.0401, -0.0628, 578, 0, 0.0000, 0.0000, 0.0000, 0.0000
4.8200, 0.0000, 0.0000, 0.0000, 0.0000, 0.0000, 0.0000, 0.1317, 0.0640, -0.0882, 0.0471, 0.0412, -0.0631, 579, 0, 0.0000, 0.0000, 0.0000, 0.0000
4.8400, 0.0000, 0.0000, 0.0000, 0.0000, 0.0000, 0.0000, 0.1316, 0.0637, -0.0876, 0.0469, 0.0416, -0.0650, 580, 0, 0.0000, 0.0000, 0.0000, 0.0000
4.8600, 0.0000, 0.0000, 0.0000, 0.0000, 0.0000, 0.0000, 0.1316, 0.0637, -0.0874, 0.0473, 0.0417, -0.0649, 581, 0, 0.0000, 0.0000, 0.0000, 0.0000
4.8800, 0.0000, 0.0000, 0.0000, 0.0000, 0.0000, 0.0000, 0.1316, 0.0637, -0.0873, 0.0472, 0.0401, -0.0651, 582, 0, 0.0000, 0.0000, 0.0000, 0.0000
4.9000, 0.0000, 0.0000, 0.0000, 0.0000, 0.0000, 0.0000, 0.1315, 0.0638, -0.0870, 0.0475, 0.0389, -0.0646, 583, 0, 0.0000, 0.0000, 0.0000, 0.0000
4.9200, 0.0000, 0.0000, 0.0000, 0.0000, 0.0000, 0.0000, 0.1317, 0.0638, -0.0871, 0.0474, 0.0392, -0.0652, 584, 0, 0.0000, 0.0000, 0.0000, 0.0000
4.9400, 0.0000, 0.0000, 0.0000, 0.0000, 0.0000, 0.0000, 0.1317, 0.0640, -0.0871, 0.0475, 0.0398, -0.0662, 585, 0, 0.0000, 0.0000, 0.0000, 0.0000
4.9600, 0.0000, 0.0000, 0.0000, 0.0000, 0.0000, 0.0000, 0.1318, 0.0641, -0.0873, 0.0473, 0.0413, -0.0664, 586, 0, 0.0000, 0.0000, 0.0000, 0.0000
4.9800, 0.0000, 0.0000, 0.0000, 0.0000, 0.0000, 0.0000, 0.1317, 0.0642, -0.0876, 0.0475, 0.0422, -0.0651, 587, 0, 0.0000, 0.0000, 0.0000, 0.0000
5.0000, 0.0000, 0.0000, 0.0000, 0.0000, 0.0000, 0.0000, 0.1317, 0.0644, -0.0877, 0.0476, 0.0438, -0.0642, 588, 0, 0.0000, 0.0000, 0.0000, 0.0000
5.0200, 0.0000, 0.0000, 0.0000, 0.0000, 0.0000, 0.0000, 0.1319, 0.0648, -0.0880, 0.0479, 0.0444, -0.0635, 589, 0, 0.0000, 0.0000, 0.0000, 0.0000
5.0400, 0.0000, 0.0000, 0.0000, 0.0000, 0.0000, 0.0000, 0.1319, 0.0649, -0.0881, 0.0477, 0.0448, -0.0644, 590, 0, 0.0000, 0.0000, -0.0067, 0.0000
5.0600, 0.0000, 0.0000, 0.0000, 0.0000, 0.0000, 0.0000, 0.1319, 0.0651, -0.0884, 0.0480, 0.0462, -0.0648, 591, 0, 0.0000, 0.0000, -0.0133, 0.0000
5.0800, 0.0000, 0.0000, 0.0000, 0.0000, 0.0000, 0.0000, 0.1319, 0.0652, -0.0888, 0.0481, 0.0469, -0.0646, 592, 0, 0.0000, 0.0000, -0.0200, 0.0000
5.1000, 0.0000, 0.0000, 0.0000, 0.0000, 0.0000, 0.0000, 0.1319, 0.0656, -0.0890, 0.0483, 0.0467, -0.0645, 593, 0, 0.0000, 0.0000, -0.0267, 0.0000
5.1200, 0.0000, 0.0000, 0.0000, 0.0000, 0.0000, 0.0000, 0.1320, 0.0657, -0.0892, 0.0485, 0.0466, -0.0645, 594, 0, 0.0000, 0.0000, -0.0333, 0.0000
5.1400, 0.0000, 0.0000, 0.0000, 0.0000, 0.0000, 0.0000, 0.1319, 0.0659, -0.0894, 0.0483, 0.0462, -0.0649, 595, 0, 0.0000, 0.0000, -0.0400, 0.0000
5.1600, 0.0000, 0.0000, 0.0000, 0.0000, 0.0000, 0.0000, 0.1319, 0.0664, -0.0894, 0.0483, 0.0461, -0.0652, 596, 0, 0.0000, 0.0000, -0.0467, 0.0000
5.1800, 0.0000, 0.0000, 0.0000, 0.0000, 0.0000, 0.0000, 0.1320, 0.0667, -0.0898, 0.0486, 0.0457, -0.0649, 597, 0, 0.0000, 0.0000, -0.0533, 0.0000
5.2000, 0.0000, 0.0000, 0.0000, 0.0000, 0.0000, 0.0000, 0.1319, 0.0668, -0.0898, 0.0487, 0.0459, -0.0660, 598, 0, 0.0000, 0.0000, -0.0600, 0.0000
5.2200, 0.0000, 0.0000, 0.0000, 0.0000, 0.0000, 0.0000, 0.1319, 0.0672, -0.0898, 0.0492, 0.0457, -0.0667, 599, 0, 0.0000, 0.0000, -0.0667, 0.0000
5.2400, 0.0000, 0.0000, 0.0000, 0.0000, 0.0000, 0.0000, 0.1319, 0.0674, -0.0900, 0.0494, 0.0454, -0.0671, 600, 0, 0.0000, 0.0000, -0.0733, 0.0000
5.2600, 0.0000, 0.0000, 0.0000, 0.0000, 0.0000, 0.0000, 0.1318, 0.0678, -0.0899, 0.0496, 0.0442, -0.0687, 601, 0, 0.0000, 0.0000, -0.0800, 0.0000
5.2800, 0.0000, 0.0000, 0.0000, 0.0000, 0.0000, 0.0000, 0.1318, 0.0678, -0.0900, 0.0496, 0.0435, -0.0696, 602, 0, 0.0000, 0.0000, -0.0867, 0.0000
5.3000, 0.0000, 0.0000, 0.0000, 0.0000, 0.0000, 0.0000, 0.1317, 0.0682, -0.0903, 0.0498, 0.0437, -0.0699, 603, 0, 0.0000, 0.0000, -0.0933, 0.0000
5.3200, 0.0000, 0.0000, 0.0000, 0.0000, 0.0000, 0.0000, 0.1317, 0.0685, -0.0904, 0.0498, 0.0435, -0.0693, 604, 0, 0.0000, 0.0000, -0.1000, 0.0000
5.3400, 0.0000, 0.0000, 0.0000, 0.0000, 0.0000, 0.0000, 0.1317, 0.0689, -0.0908, 0.0500, 0.0445, -0.0684, 605, 0, 0.0000, 0.0000, -0.1067, 0.0000
5.3600, 0.0000, 0.0000, 0.0000, 0.0000, 0.0000, 0.0000, 0.1315, 0.0689, -0.0911, 0.0501, 0.0457, -0.0683, 606, 0, 0.0000, 0.0000, -0.1133, 0.0000
5.3800, 0.0000, 0.0000, 0.0000, 0.0000, 0.0000, 0.0000, 0.1315, 0.0694, -0.0915, 0.0506, 0.0460, -0.0692, 607, 0, 0.0000, 0.0000, -0.1200, 0.0000
5.4000, 0.0000, 0.0000, 0.0000, 0.0000, 0.0000, 0.0000, 0.1315, 0.0696, -0.0921, 0.0502, 0.0454, -0.0700, 608, 0, 0.0000, 0.0000, -0.1267, 0.0000
5.4200, 0.0000, 0.0000, 0.0000, 0.0000, 0.0000, 0.0000, 0.1315, 0.0697, -0.0927, 0.0504, 0.0445, -0.0694, 609, 0, 0.0000, 0.0000, -0.1333, 0.0000
5.4400, 0.0000, 0.0000, 0.0000, 0.0000, 0.0000, 0.0000, 0.1317, 0.0700, -0.0934, 0.0502, 0.0437, -0.0699, 610, 0, 0.0000, 0.0000, -0.1400, 0.0000
5.4590, 0.0000, 0.0000, 0.0000, 0.0000, 0.0000, 0.0000, 0.1317, 0.0704, -0.0940, 0.0499, 0.0422, -0.0705, 611, 0, 0.0000, 0.0000, -0.1467, 0.0000
5.4800, 0.0000, 0.0000, 0.0000, 0.0000, 0.0000, 0.0000, 0.1318, 0.0707, -0.0947, 0.0495, 0.0416, -0.0713, 612, 0, 0.0000, 0.0000, -0.1530, 0.0000
5.5000, 0.0000, 0.0000, 0.0000, 0.0000, 0.0000, 0.0000, 0.1318, 0.0706, -0.0955, 0.0494, 0.0416, -0.0712, 613, 0, 0.0000, 0.0000, -0.1600, 0.0000
5.5200, 0.0000, 0.0000, 0.0000, 0.0000, 0.0000, 0.0000, 0.1320, 0.0709, -0.0962, 0.0492, 0.0410, -0.0710, 614, 0, 0.0000, 0.0000, -0.1667, 0.0000
5.5400, 0.0000, 0.0000, 0.0000, 0.0000, 0.0000, 0.0000, 0.1321, 0.0712, -0.0970, 0.0491, 0.0415, -0.0701, 615, 0, 0.0000, 0.0000, -0.1733, 0.0000
5.5600, 0.0000, 0.0000, 0.0000, 0.0000, 0.0000, 0.0000, 0.1322, 0.0712, -0.0979, 0.0488, 0.0419, -0.0698, 616, 0, 0.0000, 0.0000, -0.1800, 0.0000
5.5800, 0.0000, 0.0000, 0.0000, 0.0000, 0.0000, 0.0000, 0.1322, 0.0712, -0.0986, 0.0487, 0.0424, -0.0695, 617, 0, 0.0000, 0.0000, -0.1867, 0.0000
5.6000, 0.0000, 0.0000, 0.0000, 0.0000, 0.0000, 0.0000, 0.1324, 0.0714, -0.0995, 0.0485, 0.0426, -0.0693, 618, 0, 0.0000, 0.0000, -0.1933, 0.0000
5.6200, 0.0000, 0.0000, 0.0000, 0.0000, 0.0000, 0.0000, 0.1325, 0.0713, -0.1002, 0.0482, 0.0423, -0.0689, 619, 0, 0.0000, 0.0000, -0.2000, 0.0000
5.6400, 0.0000, 0.0000, 0.0000, 0.0000, 0.0000, 0.0000, 0.1328, 0.0716, -0.1012, 0.0482, 0.0427, -0.0690, 620, 0, 0.0000, 0.0000, -0.2067, 0.0000
5.6600, 0.0000, 0.0000, 0.0000, 0.0000, 0.0000, 0.0000, 0.1328, 0.0715, -0.1022, 0.0481, 0.0431, -0.0688, 621, 0, 0.0000, 0.0000, -0.2133, 0.0000
5.6800, 0.0000, 0.0000, 0.0000, 0.0000, 0.0000, 0.0000, 0.1329, 0.0719, -0.1030, 0.0479, 0.0441, -0.0681, 622, 0, 0.0000, 0.0000, -0.2200, 0.0000
5.7000, 0.0000, 0.0000, 0.0000, 0.0000, 0.0000, 0.0000, 0.1330, 0.0720, -0.1040, 0.0480, 0.0453, -0.0675, 623, 0, 0.0000, 0.0000, -0.2267, 0.0000
5.7200, 0.0000, 0.0000, 0.0000, 0.0000, 0.0000, 0.0000, 0.1330, 0.0718, -0.1052, 0.0479, 0.0454, -0.0660, 624, 0, 0.0000, 0.0000, -0.2333, 0.0000
5.7400, 0.0000, 0.0000, 0.0000, 0.0000, 0.0000, 0.0000, 0.1332, 0.0720, -0.1063, 0.0479, 0.0462, -0.0655, 625, 0, 0.0000, 0.0000, -0.2400, 0.0000
5.7600, 0.0000, 0.0000, 0.0000, 0.0000, 0.0000, 0.0000, 0.1334, 0.0722, -0.1077, 0.0486, 0.0472, -0.0644, 626, 0, 0.0000, 0.0000, -0.2467, 0.0000
5.7800, 0.0000, 0.0000, 0.0000, 0.0000, 0.0000, 0.0000, 0.1334, 0.0722, -0.1088, 0.0486, 0.0475, -0.0642, 627, 0, 0.0000, 0.0000, -0.2533, 0.0000
5.8000, 0.0000, 0.0000, 0.0000, 0.0000, 0.0000, 0.0000, 0.1335, 0.0723, -0.1099, 0.0488, 0.0476, -0.0640, 628, 0, 0.0000, 0.0000, -0.2600, 0.0000
5.8200, 0.0000, 0.0000, 0.0000, 0.0000, 0.0000, 0.0000, 0.1335, 0.0725, -0.1112, 0.0488, 0.0476, -0.0644, 629, 0, 0.0000, 0.0000, -0.2667, 0.0000
5.8400, 0.0000, 0.0000, 0.0000, 0.0000, 0.0000, 0.0000, 0.1336, 0.0726, -0.1128, 0.0492, 0.0483, -0.0641, 630, 0, 0.0000, 0.0000, -0.2733, 0.0000
5.8600, 0.0000, 0.0000, 0.0000, 0.0000, 0.0000, 0.0000, 0.1335, 0.0725, -0.1142, 0.0496, 0.0498, -0.0638, 631, 0, 0.0000, 0.0000, -0.2800, 0.0000
5.8800, 0.0000, 0.0000, 0.0000, 0.0000, 0.0000, 0.0000, 0.1336, 0.0726, -0.1157, 0.0502, 0.0505, -0.0644, 632, 0, 0.0000, 0.0000, -0.2867, 0.0000
5.9000, 0.0000, 0.0000, 0.0000, 0.0000, 0.0000, 0.0000, 0.1335, 0.0728, -0.1171, 0.0503, 0.0506, -0.0648, 633, 0, 0.0000, 0.0000, -0.2933, 0.0000
5.9200, 0.0000, 0.0000, 0.0000, 0.0000, 0.0000, 0.0000, 0.1338, 0.0729, -0.1186, 0.0504, 0.0495, -0.0655, 634, 0, 0.0000, 0.0000, -0.3000, 0.0000
5.9400, 0.0000, 0.0000, 0.0000, 0.0000, 0.0000, 0.0000, 0.1336, 0.0730, -0.1199, 0.0503, 0.0487, -0.0659, 635, 0, 0.0000, 0.0000, -0.3067, 0.0000
5.9600, 0.0000, 0.0000, 0.0000, 0.0000, 0.0000, 0.0000, 0.1336, 0.0731, -0.1213, 0.0504, 0.0489, -0.0664, 636, 0, 0.0000, 0.0000, -0.3133, 0.0000
5.9800, 0.0000, 0.0000, 0.0000, 0.0000, 0.0000, 0.0000, 0.1336, 0.0736, -0.1227, 0.0507, 0.0501, -0.0659, 637, 0, 0.0000, 0.0000, -0.3200, 0.0000
6.0000, 0.0000, 0.0000, 0.0000, 0.0000, 0.0000, 0.0000, 0.1336, 0.0737, -0.1240, 0.0506, 0.0501, -0.0651, 638, 0, 0.0000, 0.0000, -0.3267, 0.0000
6.0200, 0.0000, 0.0000, 0.0000, 0.0000, 0.0000, 0.0000, 0.1334, 0.0738, -0.1256, 0.0505, 0.0507, -0.0634, 639, 0, 0.0000, 0.0000, -0.3333, 0.0000
6.0400, 0.0000, 0.0000, 0.0000, 0.0000, 0.0000, 0.0000, 0.1333, 0.0743, -0.1270, 0.0505, 0.0511, -0.0623, 640, 0, 0.0000, 0.0000, -0.3400, 0.0000
6.0600, 0.0000, 0.0000, 0.0000, 0.0000, 0.0000, 0.0000, 0.1331, 0.0746, -0.1286, 0.0504, 0.0510, -0.0617, 641, 0, 0.0000, 0.0000, -0.3467, 0.0000
6.0800, 0.0000, 0.0000, 0.0000, 0.0000, 0.0000, 0.0000, 0.1327, 0.0745, -0.1303, 0.0503, 0.0506, -0.0633, 642, 0, 0.0000, 0.0000, -0.3533, 0.0000
6.1000, 0.0000, 0.0000, 0.0000, 0.0000, 0.0000, 0.0000, 0.1326, 0.0746, -0.1320, 0.0505, 0.0500, -0.0643, 643, 0, 0.0000, 0.0000, -0.3600, 0.0000
6.1200, 0.0000, 0.0000, 0.0000, 0.0000, 0.0000, 0.0000, 0.1322, 0.0753, -0.1337, 0.0502, 0.0496, -0.0649, 644, 0, 0.0000, 0.0000, -0.3667, 0.0000
6.1400, 0.0000, 0.0000, 0.0000, 0.0000, 0.0000, 0.0000, 0.1318, 0.0755, -0.1356, 0.0501, 0.0494, -0.0638, 645, 0, 0.0000, 0.0000, -0.3733, 0.0000
6.1600, 0.0000, 0.0000, 0.0000, 0.0000, 0.0000, 0.0000, 0.1312, 0.0759, -0.1373, 0.0501, 0.0503, -0.0630, 646, 0, 0.0000, 0.0000, -0.3800, 0.0000
6.1800, 0.0000, 0.0000, 0.0000, 0.0000, 0.0000, 0.0000, 0.1307, 0.0762, -0.1392, 0.0497, 0.0516, -0.0632, 647, 0, 0.0000, 0.0000, -0.3867, 0.0000
6.2000, 0.0000, 0.0000, 0.0000, 0.0000, 0.0000, 0.0000, 0.1301, 0.0769, -0.1410, 0.0500, 0.0529, -0.0618, 648, 0, 0.0000, 0.0000, -0.3933, 0.0000
6.2200, 0.0000, 0.0000, 0.0000, 0.0000, 0.0000, 0.0000, 0.1294, 0.0772, -0.1431, 0.0497, 0.0546, -0.0612, 649, 0, 0.0000, 0.0000, -0.4000, 0.0000
6.2400, 0.0000, 0.0000, 0.0000, 0.0000, 0.0000, 0.0000, 0.1286, 0.0776, -0.1448, 0.0497, 0.0553, -0.0611, 650, 0, 0.0000, 0.0000, -0.4067, 0.0000
6.2600, 0.0000, 0.0000, 0.0000, 0.0000, 0.0000, 0.0000, 0.1277, 0.0783, -0.1467, 0.0495, 0.0564, -0.0611, 651, 0, 0.0000, 0.0000, -0.4133, 0.0000
6.2800, 0.0000, 0.0000, 0.0000, 0.0000, 0.0000, 0.0000, 0.1269, 0.0788, -0.1488, 0.0493, 0.0577, -0.0613, 652, 0, 0.0000, 0.0000, -0.4200, 0.0000
6.3000, 0.0000, 0.0000, 0.0000, 0.0000, 0.0000, 0.0000, 0.1258, 0.0794, -0.1506, 0.0491, 0.0585, -0.0620, 653, 0, 0.0000, 0.0000, -0.4267, 0.0000
6.3200, 0.0000, 0.0000, 0.0000, 0.0000, 0.0000, 0.0000, 0.1246, 0.0800, -0.1527, 0.0491, 0.0579, -0.0614, 654, 0, 0.0000, 0.0000, -0.4333, 0.0000
6.3400, 0.0000, 0.0000, 0.0000, 0.0000, 0.0000, 0.0000, 0.1235, 0.0806, -0.1545, 0.0491, 0.0577, -0.0608, 655, 0, 0.0000, 0.0000, -0.4400, 0.0000
6.3600, 0.0000, 0.0000, 0.0000, 0.0000, 0.0000, 0.0000, 0.1222, 0.0813, -0.1565, 0.0491, 0.0569, -0.0599, 656, 0, 0.0000, 0.0000, -0.4467, 0.0000
6.3800, 0.0000, 0.0000, 0.0000, 0.0000, 0.0000, 0.0000, 0.1209, 0.0819, -0.1585, 0.0488, 0.0539, -0.0603, 657, 0, 0.0000, 0.0000, -0.4533, 0.0000
6.4000, 0.0000, 0.0000, 0.0000, 0.0000, 0.0000, 0.0000, 0.1196, 0.0825, -0.1606, 0.0482, 0.0500, -0.0612, 658, 0, 0.0000, 0.0000, -0.4600, 0.0000
6.4200, 0.0000, 0.0000, 0.0000, 0.0000, 0.0000, 0.0000, 0.1181, 0.0833, -0.1625, 0.0481, 0.0464, -0.0619, 659, 0, 0.0000, 0.0000, -0.4667, 0.0000
6.4400, 0.0000, 0.0000, 0.0000, 0.0000, 0.0000, 0.0000, 0.1167, 0.0839, -0.1645, 0.0476, 0.0435, -0.0629, 660, 0, 0.0000, 0.0000, -0.4733, 0.0000
6.4600, 0.0000, 0.0000, 0.0000, 0.0000, 0.0000, 0.0000, 0.1151, 0.0844, -0.1664, 0.0472, 0.0409, -0.0643, 661, 0, 0.0000, 0.0000, -0.4800, 0.0000
6.4800, 0.0000, 0.0000, 0.0000, 0.0000, 0.0000, 0.0000, 0.1135, 0.0852, -0.1682, 0.0471, 0.0411, -0.0656, 662, 0, 0.0000, 0.0000, -0.4867, 0.0000
6.5000, 0.0000, 0.0000, 0.0000, 0.0000, 0.0000, 0.0000, 0.1118, 0.0859, -0.1701, 0.0470, 0.0411, -0.0669, 663, 0, 0.0000, 0.0000, -0.4933, 0.0000
6.5200, 0.0000, 0.0000, 0.0000, 0.0000, 0.0000, 0.0000, 0.1101, 0.0864, -0.1717, 0.0474, 0.0403, -0.0679, 664, 0, 0.0000, 0.0000, -0.5000, 0.0000
6.5400, 0.0000, 0.0000, 0.0000, 0.0000, 0.0000, 0.0000, 0.1083, 0.0870, -0.1734, 0.0479, 0.0398, -0.0685, 665, 0, 0.0000, 0.0000, -0.5067, 0.0000
6.5600, 0.0000, 0.0000, 0.0000, 0.0000, 0.0000, 0.0000, 0.1066, 0.0879, -0.1748, 0.0483, 0.0395, -0.0684, 666, 0, 0.0000, 0.0000, -0.5133, 0.0000
6.5800, 0.0000, 0.0000, 0.0000, 0.0000, 0.0000, 0.0000, 0.1049, 0.0886, -0.1764, 0.0488, 0.0392, -0.0677, 667, 0, 0.0000, 0.0000, -0.5200, 0.0000
6.6000, 0.0000, 0.0000, 0.0000, 0.0000, 0.0000, 0.0000, 0.1032, 0.0891, -0.1780, 0.0493, 0.0389, -0.0666, 668, 0, 0.0000, 0.0000, -0.5267, 0.0000
6.6200, 0.0000, 0.0000, 0.0000, 0.0000, 0.0000, 0.0000, 0.1014, 0.0898, -0.1795, 0.0500, 0.0389, -0.0669, 669, 0, 0.0000, 0.0000, -0.5333, 0.0000
6.6400, 0.0000, 0.0000, 0.0000, 0.0000, 0.0000, 0.0000, 0.0996, 0.0906, -0.1809, 0.0511, 0.0400, -0.0680, 670, 0, 0.0000, 0.0000, -0.5400, 0.0000
6.6600, 0.0000, 0.0000, 0.0000, 0.0000, 0.0000, 0.0000, 0.0977, 0.0911, -0.1825, 0.0518, 0.0406, -0.0690, 671, 0, 0.0000, 0.0000, -0.5467, 0.0000
6.6800, 0.0000, 0.0000, 0.0000, 0.0000, 0.0000, 0.0000, 0.0958, 0.0916, -0.1838, 0.0527, 0.0422, -0.0691, 672, 0, 0.0000, 0.0000, -0.5533, 0.0000
6.7000, 0.0000, 0.0000, 0.0000, 0.0000, 0.0000, 0.0000, 0.0938, 0.0922, -0.1852, 0.0546, 0.0430, -0.0695, 673, 0, 0.0000, 0.0000, -0.5600, 0.0000
6.7200, 0.0000, 0.0000, 0.0000, 0.0000, 0.0000, 0.0000, 0.0917, 0.0928, -0.1867, 0.0553, 0.0430, -0.0699, 674, 0, 0.0000, 0.0000, -0.5667, 0.0000
6.7400, 0.0000, 0.0000, 0.0000, 0.0000, 0.0000, 0.0000, 0.0897, 0.0931, -0.1882, 0.0569, 0.0431, -0.0697, 675, 0, 0.0000, 0.0000, -0.5733, 0.0000
6.7600, 0.0000, 0.0000, 0.0000, 0.0000, 0.0000, 0.0000, 0.0876, 0.0935, -0.1896, 0.0578, 0.0428, -0.0696, 676, 0, 0.0000, 0.0000, -0.5800, 0.0000
6.7800, 0.0000, 0.0000, 0.0000, 0.0000, 0.0000, 0.0000, 0.0856, 0.0943, -0.1912, 0.0586, 0.0415, -0.0701, 677, 0, 0.0000, 0.0000, -0.5867, 0.0000
6.8000, 0.0000, 0.0000, 0.0000, 0.0000, 0.0000, 0.0000, 0.0834, 0.0948, -0.1927, 0.0596, 0.0408, -0.0700, 678, 0, 0.0000, 0.0000, -0.5933, 0.0000
6.8200, 0.0000, 0.0000, 0.0000, 0.0000, 0.0000, 0.0000, 0.0808, 0.0951, -0.1942, 0.0608, 0.0401, -0.0692, 679, 0, 0.0000, 0.0000, -0.6000, 0.0000
6.8400, 0.0000, 0.0000, 0.0000, 0.0000, 0.0000, 0.0000, 0.0785, 0.0957, -0.1957, 0.0603, 0.0370, -0.0712, 680, 0, 0.0000, 0.0000, -0.6067, 0.0000
6.8600, 0.0000, 0.0000, 0.0000, 0.0000, 0.0000, 0.0000, 0.0766, 0.0961, -0.1970, 0.0587, 0.0249, -0.0767, 681, 0, 0.0000, 0.0000, -0.6133, 0.0000
6.8800, 0.0000, 0.0000, 0.0000, 0.0000, 0.0000, 0.0000, 0.0749, 0.0962, -0.1987, 0.0576, 0.0088, -0.0818, 682, 0, 0.0000, 0.0000, -0.6200, 0.0000
6.9000, 0.0000, 0.0000, 0.0000, 0.0000, 0.0000, 0.0000, 0.0729, 0.0964, -0.2008, 0.0569, -0.0017, -0.0854, 683, 0, 0.0000, 0.0000, -0.6267, 0.0000
6.9200, 0.0000, 0.0000, 0.0000, 0.0000, 0.0000, 0.0000, 0.0708, 0.0968, -0.2029, 0.0578, -0.0059, -0.0877, 684, 0, 0.0000, 0.0000, -0.6333, 0.0000
6.9400, 0.0000, 0.0000, 0.0000, 0.0000, 0.0000, 0.0000, 0.0685, 0.0970, -0.2054, 0.0582, -0.0053, -0.0871, 685, 0, 0.0000, 0.0000, -0.6400, 0.0000
6.9600, 0.0000, 0.0000, 0.0000, 0.0000, 0.0000, 0.0000, 0.0663, 0.0971, -0.2081, 0.0590, -0.0035, -0.0860, 686, 0, 0.0000, 0.0000, -0.6467, 0.0000
6.9800, 0.0000, 0.0000, 0.0000, 0.0000, 0.0000, 0.0000, 0.0641, 0.0971, -0.2111, 0.0603, 0.0003, -0.0849, 687, 0, 0.0000, 0.0000, -0.6533, 0.0000
7.0000, 0.0000, 0.0000, 0.0000, 0.0000, 0.0000, 0.0000, 0.0621, 0.0972, -0.2143, 0.0616, 0.0025, -0.0817, 688, 0, 0.0000, 0.0000, -0.6600, 0.0000
7.0200, 0.0000, 0.0000, 0.0000, 0.0000, 0.0000, 0.0000, 0.0603, 0.0973, -0.2174, 0.0617, 0.0039, -0.0804, 689, 0, 0.0000, 0.0000, -0.6667, 0.0000
7.0400, 0.0000, 0.0000, 0.0000, 0.0000, 0.0000, 0.0000, 0.0583, 0.0972, -0.2208, 0.0623, 0.0032, -0.0790, 690, 0, 0.0000, 0.0000, -0.6733, 0.0000
7.0600, 0.0000, 0.0000, 0.0000, 0.0000, 0.0000, 0.0000, 0.0564, 0.0973, -0.2242, 0.0630, 0.0030, -0.0774, 691, 0, 0.0000, 0.0000, -0.6800, 0.0000
7.0800, 0.0000, 0.0000, 0.0000, 0.0000, 0.0000, 0.0000, 0.0546, 0.0974, -0.2278, 0.0631, 0.0038, -0.0755, 692, 0, 0.0000, 0.0000, -0.6867, 0.0000
7.1000, 0.0000, 0.0000, 0.0000, 0.0000, 0.0000, 0.0000, 0.0530, 0.0973, -0.2312, 0.0636, 0.0046, -0.0739, 693, 0, 0.0000, 0.0000, -0.6933, 0.0000
7.1200, 0.0000, 0.0000, 0.0000, 0.0000, 0.0000, 0.0000, 0.0512, 0.0969, -0.2348, 0.0638, 0.0060, -0.0740, 694, 0, 0.0000, 0.0000, -0.7000, 0.0000
7.1400, 0.0000, 0.0000, 0.0000, 0.0000, 0.0000, 0.0000, 0.0496, 0.0969, -0.2386, 0.0644, 0.0066, -0.0722, 695, 0, 0.0000, 0.0000, -0.7067, 0.0000
7.1600, 0.0000, 0.0000, 0.0000, 0.0000, 0.0000, 0.0000, 0.0482, 0.0968, -0.2421, 0.0639, 0.0055, -0.0719, 696, 0, 0.0000, 0.0000, -0.7133, 0.0000
7.1800, 0.0000, 0.0000, 0.0000, 0.0000, 0.0000, 0.0000, 0.0467, 0.0967, -0.2460, 0.0644, 0.0050, -0.0710, 697, 0, 0.0000, 0.0000, -0.7200, 0.0000
7.2000, 0.0000, 0.0000, 0.0000, 0.0000, 0.0000, 0.0000, 0.0453, 0.0963, -0.2498, 0.0646, 0.0043, -0.0708, 698, 0, 0.0000, 0.0000, -0.7267, 0.0000
7.2200, 0.0000, 0.0000, 0.0000, 0.0000, 0.0000, 0.0000, 0.0438, 0.0961, -0.2537, 0.0650, 0.0048, -0.0707, 699, 0, 0.0000, 0.0000, -0.7333, 0.0000
7.2400, 0.0000, 0.0000, 0.0000, 0.0000, 0.0000, 0.0000, 0.0425, 0.0960, -0.2574, 0.0652, 0.0038, -0.0700, 700, 0, 0.0000, 0.0000, -0.7400, 0.0000
7.2600, 0.0000, 0.0000, 0.0000, 0.0000, 0.0000, 0.0000, 0.0413, 0.0956, -0.2614, 0.0651, 0.0033, -0.0688, 701, 0, 0.0000, 0.0000, -0.7467, 0.0000
7.2800, 0.0000, 0.0000, 0.0000, 0.0000, 0.0000, 0.0000, 0.0402, 0.0953, -0.2652, 0.0653, 0.0025, -0.0690, 702, 0, 0.0000, 0.0000, -0.7533, 0.0000
7.3000, 0.0000, 0.0000, 0.0000, 0.0000, 0.0000, 0.0000, 0.0391, 0.0950, -0.2691, 0.0652, -0.0001, -0.0689, 703, 0, 0.0000, 0.0000, -0.7600, 0.0000
7.3200, 0.0000, 0.0000, 0.0000, 0.0000, 0.0000, 0.0000, 0.0381, 0.0946, -0.2733, 0.0656, -0.0027, -0.0690, 704, 0, 0.0000, 0.0000, -0.7667, 0.0000
7.3400, 0.0000, 0.0000, 0.0000, 0.0000, 0.0000, 0.0000, 0.0372, 0.0942, -0.2773, 0.0656, -0.0047, -0.0682, 705, 0, 0.0000, 0.0000, -0.7733, 0.0000
7.3600, 0.0000, 0.0000, 0.0000, 0.0000, 0.0000, 0.0000, 0.0362, 0.0939, -0.2813, 0.0651, -0.0063, -0.0682, 706, 0, 0.0000, 0.0000, -0.7800, 0.0000
7.3800, 0.0000, 0.0000, 0.0000, 0.0000, 0.0000, 0.0000, 0.0355, 0.0936, -0.2853, 0.0653, -0.0059, -0.0672, 707, 0, 0.0000, 0.0000, -0.7867, 0.0000
7.4000, 0.0000, 0.0000, 0.0000, 0.0000, 0.0000, 0.0000, 0.0349, 0.0931, -0.2892, 0.0653, -0.0053, -0.0671, 708, 0, 0.0000, 0.0000, -0.7933, 0.0000
7.4200, 0.0000, 0.0000, 0.0000, 0.0000, 0.0000, 0.0000, 0.0343, 0.0925, -0.2932, 0.0666, -0.0047, -0.0671, 709, 0, 0.0000, 0.0000, -0.8000, 0.0000
7.4400, 0.0000, 0.0000, 0.0000, 0.0000, 0.0000, 0.0000, 0.0335, 0.0921, -0.2967, 0.0663, -0.0030, -0.0684, 710, 0, 0.0000, 0.0000, -0.8067, 0.0000
7.4600, 0.0000, 0.0000, 0.0000, 0.0000, 0.0000, 0.0000, 0.0331, 0.0915, -0.3006, 0.0670, -0.0015, -0.0690, 711, 0, 0.0000, 0.0000, -0.8133, 0.0000
7.4800, 0.0000, 0.0000, 0.0000, 0.0000, 0.0000, 0.0000, 0.0327, 0.0908, -0.3043, 0.0673, -0.0000, -0.0728, 712, 0, 0.0000, 0.0000, -0.8200, 0.0000
7.5000, 0.0000, 0.0000, 0.0000, 0.0000, 0.0000, 0.0000, 0.0324, 0.0903, -0.3077, 0.0673, 0.0011, -0.0760, 713, 0, 0.0000, 0.0000, -0.8267, 0.0000
7.5200, 0.0000, 0.0000, 0.0000, 0.0000, 0.0000, 0.0000, 0.0323, 0.0895, -0.3114, 0.0675, 0.0004, -0.0791, 714, 0, 0.0000, 0.0000, -0.8333, 0.0000
7.5400, 0.0000, 0.0000, 0.0000, 0.0000, 0.0000, 0.0000, 0.0320, 0.0889, -0.3148, 0.0670, -0.0001, -0.0827, 715, 0, 0.0000, 0.0000, -0.8400, 0.0000
7.5600, 0.0000, 0.0000, 0.0000, 0.0000, 0.0000, 0.0000, 0.0321, 0.0880, -0.3183, 0.0670, -0.0018, -0.0849, 716, 0, 0.0000, 0.0000, -0.8467, 0.0000
7.5800, 0.0000, 0.0000, 0.0000, 0.0000, 0.0000, 0.0000, 0.0320, 0.0873, -0.3218, 0.0676, 0.0004, -0.0860, 717, 0, 0.0000, 0.0000, -0.8533, 0.0000
7.6000, 0.0000, 0.0000, 0.0000, 0.0000, 0.0000, 0.0000, 0.0320, 0.0866, -0.3252, 0.0676, 0.0020, -0.0856, 718, 0, 0.0000, 0.0000, -0.8600, 0.0000
7.6200, 0.0000, 0.0000, 0.0000, 0.0000, 0.0000, 0.0000, 0.0321, 0.0856, -0.3289, 0.0680, 0.0043, -0.0841, 719, 0, 0.0000, 0.0000, -0.8667, 0.0000
7.6400, 0.0000, 0.0000, 0.0000, 0.0000, 0.0000, 0.0000, 0.0323, 0.0845, -0.3324, 0.0681, 0.0051, -0.0836, 720, 0, 0.0000, 0.0000, -0.8733, 0.0000
7.6600, 0.0000, 0.0000, 0.0000, 0.0000, 0.0000, 0.0000, 0.0327, 0.0835, -0.3358, 0.0686, 0.0070, -0.0843, 721, 0, 0.0000, 0.0000, -0.8800, 0.0000
7.6800, 0.0000, 0.0000, 0.0000, 0.0000, 0.0000, 0.0000, 0.0330, 0.0822, -0.3393, 0.0687, 0.0092, -0.0853, 722, 0, 0.0000, 0.0000, -0.8867, 0.0000
7.7000, 0.0000, 0.0000, 0.0000, 0.0000, 0.0000, 0.0000, 0.0336, 0.0808, -0.3427, 0.0695, 0.0107, -0.0858, 723, 0, 0.0000, 0.0000, -0.8933, 0.0000
7.7200, 0.0000, 0.0000, 0.0000, 0.0000, 0.0000, 0.0000, 0.0342, 0.0792, -0.3459, 0.0701, 0.0138, -0.0869, 724, 0, 0.0000, 0.0000, -0.9000, 0.0000
7.7400, 0.0000, 0.0000, 0.0000, 0.0000, 0.0000, 0.0000, 0.0349, 0.0779, -0.3489, 0.0711, 0.0173, -0.0861, 725, 0, 0.0000, 0.0000, -0.9067, 0.0000
7.7600, 0.0000, 0.0000, 0.0000, 0.0000, 0.0000, 0.0000, 0.0357, 0.0761, -0.3519, 0.0726, 0.0211, -0.0864, 726, 0, 0.0000, 0.0000, -0.9133, 0.0000
7.7800, 0.0000, 0.0000, 0.0000, 0.0000, 0.0000, 0.0000, 0.0368, 0.0741, -0.3548, 0.0747, 0.0252, -0.0865, 727, 0, 0.0000, 0.0000, -0.9200, 0.0000
7.8000, 0.0000, 0.0000, 0.0000, 0.0000, 0.0000, 0.0000, 0.0377, 0.0721, -0.3570, 0.0765, 0.0302, -0.0877, 728, 0, 0.0000, 0.0000, -0.9267, 0.0000
7.8200, 0.0000, 0.0000, 0.0000, 0.0000, 0.0000, 0.0000, 0.0388, 0.0700, -0.3594, 0.0788, 0.0363, -0.0876, 729, 0, 0.0000, 0.0000, -0.9333, 0.0000
7.8400, 0.0000, 0.0000, 0.0000, 0.0000, 0.0000, 0.0000, 0.0401, 0.0679, -0.3614, 0.0821, 0.0428, -0.0877, 730, 0, 0.0000, 0.0000, -0.9400, 0.0000
7.8590, 0.0000, 0.0000, 0.0000, 0.0000, 0.0000, 0.0000, 0.0412, 0.0652, -0.3633, 0.0849, 0.0491, -0.0878, 731, 0, 0.0000, 0.0000, -0.9467, 0.0000
7.8800, 0.0000, 0.0000, 0.0000, 0.0000, 0.0000, 0.0000, 0.0426, 0.0630, -0.3649, 0.0875, 0.0555, -0.0857, 732, 0, 0.0000, 0.0000, -0.9530, 0.0000
7.9000, 0.0000, 0.0000, 0.0000, 0.0000, 0.0000, 0.0000, 0.0440, 0.0608, -0.3667, 0.0905, 0.0596, -0.0811, 733, 0, 0.0000, 0.0000, -0.9600, 0.0000
7.9200, 0.0000, 0.0000, 0.0000, 0.0000, 0.0000, 0.0000, 0.0449, 0.0582, -0.3684, 0.0934, 0.0651, -0.0751, 734, 0, 0.0000, 0.0000, -0.9667, 0.0000
7.9400, 0.0000, 0.0000, 0.0000, 0.0000, 0.0000, 0.0000, 0.0462, 0.0558, -0.3700, 0.0962, 0.0685, -0.0692, 735, 0, 0.0000, 0.0000, -0.9733, 0.0000
7.9600, 0.0000, 0.0000, 0.0000, 0.0000, 0.0000, 0.0000, 0.0472, 0.0533, -0.3714, 0.0990, 0.0733, -0.0641, 736, 0, 0.0000, 0.0000, -0.9800, 0.0000
7.9800, 0.0000, 0.0000, 0.0000, 0.0000, 0.0000, 0.0000, 0.0481, 0.0507, -0.3727, 0.1018, 0.0775, -0.0604, 737, 0, 0.0000, 0.0000, -0.9867, 0.0000
8.0000, 0.0000, 0.0000, 0.0000, 0.0000, 0.0000, 0.0000, 0.0487, 0.0475, -0.3740, 0.1050, 0.0831, -0.0570, 738, 0, 0.0000, 0.0000, -0.9933, 0.0000
8.0200, 0.0000, 0.0000, 0.0000, 0.0000, 0.0000, 0.0000, 0.0494, 0.0449, -0.3748, 0.1086, 0.0892, -0.0549, 739, 0, 0.0000, 0.0000, -1.0000, 0.0000
8.0400, 0.0000, 0.0000, 0.0000, 0.0000, 0.0000, 0.0000, 0.0501, 0.0423, -0.3757, 0.1116, 0.0920, -0.0516, 740, 0, 0.0000, 0.0000, -1.0000, 0.0000
8.0600, 0.0000, 0.0000, 0.0000, 0.0000, 0.0000, 0.0000, 0.0506, 0.0392, -0.3769, 0.1153, 0.0920, -0.0482, 741, 0, 0.0000, 0.0000, -1.0000, 0.0000
8.0800, 0.0000, 0.0000, 0.0000, 0.0000, 0.0000, 0.0000, 0.0509, 0.0365, -0.3781, 0.1179, 0.0908, -0.0438, 742, 0, 0.0000, 0.0000, -1.0000, 0.0000
8.1000, 0.0000, 0.0000, 0.0000, 0.0000, 0.0000, 0.0000, 0.0512, 0.0338, -0.3794, 0.1209, 0.0901, -0.0378, 743, 0, 0.0000, 0.0000, -1.0000, 0.0000
8.1200, 0.0000, 0.0000, 0.0000, 0.0000, 0.0000, 0.0000, 0.0510, 0.0313, -0.3807, 0.1230, 0.0906, -0.0301, 744, 0, 0.0000, 0.0000, -1.0000, 0.0000
8.1400, 0.0000, 0.0000, 0.0000, 0.0000, 0.0000, 0.0000, 0.0509, 0.0286, -0.3824, 0.1262, 0.0902, -0.0239, 745, 0, 0.0000, 0.0000, -1.0000, 0.0000
8.1600, 0.0000, 0.0000, 0.0000, 0.0000, 0.0000, 0.0000, 0.0503, 0.0260, -0.3836, 0.1292, 0.0896, -0.0224, 746, 0, 0.0000, 0.0000, -1.0000, 0.0000
8.1800, 0.0000, 0.0000, 0.0000, 0.0000, 0.0000, 0.0000, 0.0497, 0.0236, -0.3852, 0.1316, 0.0879, -0.0209, 747, 0, 0.0000, 0.0000, -1.0000, 0.0000
8.2000, 0.0000, 0.0000, 0.0000, 0.0000, 0.0000, 0.0000, 0.0488, 0.0211, -0.3873, 0.1330, 0.0831, -0.0194, 748, 0, 0.0000, 0.0000, -1.0000, 0.0000
8.2200, 0.0000, 0.0000, 0.0000, 0.0000, 0.0000, 0.0000, 0.0479, 0.0189, -0.3892, 0.1355, 0.0773, -0.0192, 749, 0, 0.0000, 0.0000, -1.0000, 0.0000
8.2400, 0.0000, 0.0000, 0.0000, 0.0000, 0.0000, 0.0000, 0.0465, 0.0167, -0.3915, 0.1367, 0.0721, -0.0183, 750, 0, 0.0000, 0.0000, -1.0000, 0.0000
8.2600, 0.0000, 0.0000, 0.0000, 0.0000, 0.0000, 0.0000, 0.0450, 0.0150, -0.3937, 0.1385, 0.0666, -0.0181, 751, 0, 0.0000, 0.0000, -1.0000, 0.0000
8.2800, 0.0000, 0.0000, 0.0000, 0.0000, 0.0000, 0.0000, 0.0435, 0.0129, -0.3964, 0.1399, 0.0607, -0.0166, 752, 0, 0.0000, 0.0000, -1.0000, 0.0000
8.3000, 0.0000, 0.0000, 0.0000, 0.0000, 0.0000, 0.0000, 0.0418, 0.0113, -0.3989, 0.1413, 0.0570, -0.0163, 753, 0, 0.0000, 0.0000, -1.0000, 0.0000
8.3200, 0.0000, 0.0000, 0.0000, 0.0000, 0.0000, 0.0000, 0.0398, 0.0099, -0.4015, 0.1426, 0.0537, -0.0149, 754, 0, 0.0000, 0.0000, -1.0000, 0.0000
8.3400, 0.0000, 0.0000, 0.0000, 0.0000, 0.0000, 0.0000, 0.0380, 0.0088, -0.4040, 0.1433, 0.0499, -0.0151, 755, 0, 0.0000, 0.0000, -1.0000, 0.0000
8.3600, 0.0000, 0.0000, 0.0000, 0.0000, 0.0000, 0.0000, 0.0359, 0.0075, -0.4069, 0.1440, 0.0471, -0.0141, 756, 0, 0.0000, 0.0000, -1.0000, 0.0000
8.3800, 0.0000, 0.0000, 0.0000, 0.0000, 0.0000, 0.0000, 0.0337, 0.0067, -0.4096, 0.1444, 0.0449, -0.0142, 757, 0, 0.0000, 0.0000, -1.0000, 0.0000
8.4000, 0.0000, 0.0000, 0.0000, 0.0000, 0.0000, 0.0000, 0.0315, 0.0059, -0.4125, 0.1447, 0.0418, -0.0128, 758, 0, 0.0000, 0.0000, -1.0000, 0.0000
8.4190, 0.0000, 0.0000, 0.0000, 0.0000, 0.0000, 0.0000, 0.0292, 0.0055, -0.4153, 0.1453, 0.0371, -0.0131, 759, 0, 0.0000, 0.0000, -1.0000, 0.0000
8.4400, 0.0000, 0.0000, 0.0000, 0.0000, 0.0000, 0.0000, 0.0272, 0.0047, -0.4182, 0.1455, 0.0324, -0.0144, 760, 0, 0.0000, 0.0000, -1.0000, 0.0000
8.4600, 0.0000, 0.0000, 0.0000, 0.0000, 0.0000, 0.0000, 0.0247, 0.0044, -0.4209, 0.1455, 0.0292, -0.0166, 761, 0, 0.0000, 0.0000, -1.0000, 0.0000
8.4800, 0.0000, 0.0000, 0.0000, 0.0000, 0.0000, 0.0000, 0.0224, 0.0042, -0.4235, 0.1461, 0.0265, -0.0184, 762, 0, 0.0000, 0.0000, -1.0000, 0.0000
8.5000, 0.0000, 0.0000, 0.0000, 0.0000, 0.0000, 0.0000, 0.0200, 0.0042, -0.4262, 0.1467, 0.0248, -0.0204, 763, 0, 0.0000, 0.0000, -1.0000, 0.0000
8.5200, 0.0000, 0.0000, 0.0000, 0.0000, 0.0000, 0.0000, 0.0174, 0.0042, -0.4287, 0.1472, 0.0248, -0.0236, 764, 0, 0.0000, 0.0000, -1.0000, 0.0000
8.5400, 0.0000, 0.0000, 0.0000, 0.0000, 0.0000, 0.0000, 0.0151, 0.0044, -0.4309, 0.1473, 0.0264, -0.0279, 765, 0, 0.0000, 0.0000, -1.0000, 0.0000
8.5600, 0.0000, 0.0000, 0.0000, 0.0000, 0.0000, 0.0000, 0.0128, 0.0046, -0.4328, 0.1485, 0.0276, -0.0307, 766, 0, 0.0000, 0.0000, -1.0000, 0.0000
8.5800, 0.0000, 0.0000, 0.0000, 0.0000, 0.0000, 0.0000, 0.0104, 0.0050, -0.4348, 0.1496, 0.0267, -0.0318, 767, 0, 0.0000, 0.0000, -1.0000, 0.0000
8.6000, 0.0000, 0.0000, 0.0000, 0.0000, 0.0000, 0.0000, 0.0082, 0.0053, -0.4367, 0.1500, 0.0256, -0.0325, 768, 0, 0.0000, 0.0000, -1.0000, 0.0000
8.6200, 0.0000, 0.0000, 0.0000, 0.0000, 0.0000, 0.0000, 0.0061, 0.0061, -0.4383, 0.1509, 0.0210, -0.0326, 769, 0, 0.0000, 0.0000, -1.0000, 0.0000
8.6400, 0.0000, 0.0000, 0.0000, 0.0000, 0.0000, 0.0000, 0.0041, 0.0069, -0.4399, 0.1509, 0.0122, -0.0345, 770, 0, 0.0000, 0.0000, -1.0000, 0.0000
8.6600, 0.0000, 0.0000, 0.0000, 0.0000, 0.0000, 0.0000, 0.0024, 0.0076, -0.4413, 0.1515, 0.0028, -0.0352, 771, 0, 0.0000, 0.0000, -1.0000, 0.0000
8.6800, 0.0000, 0.0000, 0.0000, 0.0000, 0.0000, 0.0000, 0.0006, 0.0084, -0.4426, 0.1522, -0.0042, -0.0364, 772, 0, 0.0000, 0.0000, -1.0000, 0.0000
8.7000, 0.0000, 0.0000, 0.0000, 0.0000, 0.0000, 0.0000, -0.0014, 0.0096, -0.4436, 0.1531, -0.0066, -0.0370, 773, 0, 0.0000, 0.0000, -1.0000, 0.0000
8.7200, 0.0000, 0.0000, 0.0000, 0.0000, 0.0000, 0.0000, -0.0031, 0.0105, -0.4447, 0.1543, -0.0067, -0.0370, 774, 0, 0.0000, 0.0000, -1.0000, 0.0000
8.7400, 0.0000, 0.0000, 0.0000, 0.0000, 0.0000, 0.0000, -0.0046, 0.0115, -0.4456, 0.1557, -0.0099, -0.0383, 775, 0, 0.0000, 0.0000, -1.0000, 0.0000
8.7600, 0.0000, 0.0000, 0.0000, 0.0000, 0.0000, 0.0000, -0.0060, 0.0126, -0.4459, 0.1566, -0.0150, -0.0421, 776, 0, 0.0000, 0.0000, -1.0000, 0.0000
8.7800, 0.0000, 0.0000, 0.0000, 0.0000, 0.0000, 0.0000, -0.0072, 0.0139, -0.4461, 0.1572, -0.0166, -0.0460, 777, 0, 0.0000, 0.0000, -1.0000, 0.0000
8.8000, 0.0000, 0.0000, 0.0000, 0.0000, 0.0000, 0.0000, -0.0081, 0.0150, -0.4462, 0.1589, -0.0147, -0.0483, 778, 0, 0.0000, 0.0000, -1.0000, 0.0000
8.8200, 0.0000, 0.0000, 0.0000, 0.0000, 0.0000, 0.0000, -0.0091, 0.0164, -0.4460, 0.1608, -0.0101, -0.0508, 779, 0, 0.0000, 0.0000, -1.0000, 0.0000
8.8400, 0.0000, 0.0000, 0.0000, 0.0000, 0.0000, 0.0000, -0.0096, 0.0179, -0.4457, 0.1622, -0.0088, -0.0524, 780, 0, 0.0000, 0.0000, -1.0000, 0.0000
8.8600, 0.0000, 0.0000, 0.0000, 0.0000, 0.0000, 0.0000, -0.0100, 0.0196, -0.4455, 0.1635, -0.0112, -0.0534, 781, 0, 0.0000, 0.0000, -1.0000, 0.0000
8.8800, 0.0000, 0.0000, 0.0000, 0.0000, 0.0000, 0.0000, -0.0101, 0.0213, -0.4456, 0.1652, -0.0106, -0.0526, 782, 0, 0.0000, 0.0000, -1.0000, 0.0000
8.9000, 0.0000, 0.0000, 0.0000, 0.0000, 0.0000, 0.0000, -0.0100, 0.0228, -0.4456, 0.1669, -0.0096, -0.0516, 783, 0, 0.0000, 0.0000, -1.0000, 0.0000
8.9200, 0.0000, 0.0000, 0.0000, 0.0000, 0.0000, 0.0000, -0.0102, 0.0247, -0.4453, 0.1684, -0.0058, -0.0534, 784, 0, 0.0000, 0.0000, -1.0000, 0.0000
8.9400, 0.0000, 0.0000, 0.0000, 0.0000, 0.0000, 0.0000, -0.0099, 0.0264, -0.4455, 0.1699, -0.0019, -0.0549, 785, 0, 0.0000, 0.0000, -1.0000, 0.0000
8.9600, 0.0000, 0.0000, 0.0000, 0.0000, 0.0000, 0.0000, -0.0096, 0.0280, -0.4457, 0.1711, 0.0013, -0.0565, 786, 0, 0.0000, 0.0000, -1.0000, 0.0000
8.9800, 0.0000, 0.0000, 0.0000, 0.0000, 0.0000, 0.0000, -0.0091, 0.0298, -0.4458, 0.1717, 0.0051, -0.0591, 787, 0, 0.0000, 0.0000, -1.0000, 0.0000
9.0000, 0.0000, 0.0000, 0.0000, 0.0000, 0.0000, 0.0000, -0.0088, 0.0319, -0.4458, 0.1724, 0.0097, -0.0622, 788, 0, 0.0000, 0.0000, -1.0000, 0.0000
9.0200, 0.0000, 0.0000, 0.0000, 0.0000, 0.0000, 0.0000, -0.0081, 0.0336, -0.4462, 0.1730, 0.0124, -0.0630, 789, 0, 0.0000, 0.0000, -1.0000, 0.0000
9.0400, 0.0000, 0.0000, 0.0000, 0.0000, 0.0000, 0.0000, -0.0074, 0.0353, -0.4467, 0.1736, 0.0142, -0.0644, 790, 0, 0.0000, 0.0000, -1.0000, 0.0000
9.0600, 0.0000, 0.0000, 0.0000, 0.0000, 0.0000, 0.0000, -0.0066, 0.0372, -0.4473, 0.1737, 0.0163, -0.0658, 791, 0, 0.0000, 0.0000, -1.0000, 0.0000
9.0800, 0.0000, 0.0000, 0.0000, 0.0000, 0.0000, 0.0000, -0.0058, 0.0392, -0.4480, 0.1735, 0.0178, -0.0667, 792, 0, 0.0000, 0.0000, -1.0000, 0.0000
9.1000, 0.0000, 0.0000, 0.0000, 0.0000, 0.0000, 0.0000, -0.0052, 0.0410, -0.4489, 0.1730, 0.0174, -0.0685, 793, 0, 0.0000, 0.0000, -1.0000, 0.0000
9.1200, 0.0000, 0.0000, 0.0000, 0.0000, 0.0000, 0.0000, -0.0043, 0.0428, -0.4500, 0.1730, 0.0185, -0.0694, 794, 0, 0.0000, 0.0000, -1.0000, 0.0000
9.1400, 0.0000, 0.0000, 0.0000, 0.0000, 0.0000, 0.0000, -0.0034, 0.0446, -0.4512, 0.1722, 0.0188, -0.0708, 795, 0, 0.0000, 0.0000, -1.0000, 0.0000
9.1600, 0.0000, 0.0000, 0.0000, 0.0000, 0.0000, 0.0000, -0.0023, 0.0463, -0.4525, 0.1717, 0.0196, -0.0721, 796, 0, 0.0000, 0.0000, -1.0000, 0.0000
9.1800, 0.0000, 0.0000, 0.0000, 0.0000, 0.0000, 0.0000, -0.0015, 0.0480, -0.4541, 0.1711, 0.0207, -0.0731, 797, 0, 0.0000, 0.0000, -1.0000, 0.0000
9.2000, 0.0000, 0.0000, 0.0000, 0.0000, 0.0000, 0.0000, -0.0007, 0.0497, -0.4556, 0.1704, 0.0223, -0.0741, 798, 0, 0.0000, 0.0000, -1.0000, 0.0000
9.2200, 0.0000, 0.0000, 0.0000, 0.0000, 0.0000, 0.0000, 0.0005, 0.0517, -0.4573, 0.1688, 0.0219, -0.0753, 799, 0, 0.0000, 0.0000, -1.0000, 0.0000
9.2400, 0.0000, 0.0000, 0.0000, 0.0000, 0.0000, 0.0000, 0.0016, 0.0531, -0.4595, 0.1680, 0.0204, -0.0752, 800, 0, 0.0000, 0.0000, -1.0000, 0.0000
9.2600, 0.0000, 0.0000, 0.0000, 0.0000, 0.0000, 0.0000, 0.0027, 0.0548, -0.4614, 0.1668, 0.0203, -0.0770, 801, 0, 0.0000, 0.0000, -1.0000, 0.0000
9.2800, 0.0000, 0.0000, 0.0000, 0.0000, 0.0000, 0.0000, 0.0037, 0.0565, -0.4633, 0.1650, 0.0205, -0.0786, 802, 0, 0.0000, 0.0000, -1.0000, 0.0000
9.3000, 0.0000, 0.0000, 0.0000, 0.0000, 0.0000, 0.0000, 0.0047, 0.0582, -0.4655, 0.1634, 0.0218, -0.0798, 803, 0, 0.0000, 0.0000, -1.0000, 0.0000
9.3200, 0.0000, 0.0000, 0.0000, 0.0000, 0.0000, 0.0000, 0.0057, 0.0595, -0.4680, 0.1614, 0.0220, -0.0806, 804, 0, 0.0000, 0.0000, -1.0000, 0.0000
9.3400, 0.0000, 0.0000, 0.0000, 0.0000, 0.0000, 0.0000, 0.0065, 0.0610, -0.4703, 0.1597, 0.0234, -0.0820, 805, 0, 0.0000, 0.0000, -1.0000, 0.0000
9.3600, 0.0000, 0.0000, 0.0000, 0.0000, 0.0000, 0.0000, 0.0077, 0.0626, -0.4727, 0.1581, 0.0247, -0.0826, 806, 0, 0.0000, 0.0000, -1.0000, 0.0000
9.3800, 0.0000, 0.0000, 0.0000, 0.0000, 0.0000, 0.0000, 0.0088, 0.0638, -0.4753, 0.1559, 0.0256, -0.0835, 807, 0, 0.0000, 0.0000, -1.0000, 0.0000
9.4000, 0.0000, 0.0000, 0.0000, 0.0000, 0.0000, 0.0000, 0.0098, 0.0651, -0.4779, 0.1542, 0.0266, -0.0839, 808, 0, 0.0000, 0.0000, -1.0000, 0.0000
9.4200, 0.0000, 0.0000, 0.0000, 0.0000, 0.0000, 0.0000, 0.0110, 0.0664, -0.4805, 0.1522, 0.0270, -0.0833, 809, 0, 0.0000, 0.0000, -1.0000, 0.0000
9.4400, 0.0000, 0.0000, 0.0000, 0.0000, 0.0000, 0.0000, 0.0121, 0.0677, -0.4831, 0.1503, 0.0272, -0.0842, 810, 0, 0.0000, 0.0000, -1.0000, 0.0000
9.4600, 0.0000, 0.0000, 0.0000, 0.0000, 0.0000, 0.0000, 0.0132, 0.0687, -0.4859, 0.1480, 0.0265, -0.0846, 811, 0, 0.0000, 0.0000, -1.0000, 0.0000
9.4800, 0.0000, 0.0000, 0.0000, 0.0000, 0.0000, 0.0000, 0.0142, 0.0696, -0.4886, 0.1458, 0.0264, -0.0851, 812, 0, 0.0000, 0.0000, -1.0000, 0.0000
9.5000, 0.0000, 0.0000, 0.0000, 0.0000, 0.0000, 0.0000, 0.0157, 0.0708, -0.4915, 0.1436, 0.0261, -0.0858, 813, 0, 0.0000, 0.0000, -1.0000, 0.0000
9.5200, 0.0000, 0.0000, 0.0000, 0.0000, 0.0000, 0.0000, 0.0168, 0.0717, -0.4941, 0.1413, 0.0268, -0.0860, 814, 0, 0.0000, 0.0000, -1.0000, 0.0000
9.5400, 0.0000, 0.0000, 0.0000, 0.0000, 0.0000, 0.0000, 0.0179, 0.0725, -0.4971, 0.1395, 0.0274, -0.0857, 815, 0, 0.0000, 0.0000, -1.0000, 0.0000
9.5600, 0.0000, 0.0000, 0.0000, 0.0000, 0.0000, 0.0000, 0.0191, 0.0732, -0.4997, 0.1374, 0.0291, -0.0849, 816, 0, 0.0000, 0.0000, -1.0000, 0.0000
9.5800, 0.0000, 0.0000, 0.0000, 0.0000, 0.0000, 0.0000, 0.0204, 0.0739, -0.5025, 0.1355, 0.0310, -0.0849, 817, 0, 0.0000, 0.0000, -1.0000, 0.0000
9.6000, 0.0000, 0.0000, 0.0000, 0.0000, 0.0000, 0.0000, 0.0215, 0.0745, -0.5052, 0.1338, 0.0321, -0.0850, 818, 0, 0.0000, 0.0000, -1.0000, 0.0000
9.6200, 0.0000, 0.0000, 0.0000, 0.0000, 0.0000, 0.0000, 0.0228, 0.0749, -0.5079, 0.1321, 0.0333, -0.0845, 819, 0, 0.0000, 0.0000, -1.0000, 0.0000
9.6400, 0.0000, 0.0000, 0.0000, 0.0000, 0.0000, 0.0000, 0.0242, 0.0754, -0.5106, 0.1309, 0.0345, -0.0835, 820, 0, 0.0000, 0.0000, -1.0000, 0.0000
9.6600, 0.0000, 0.0000, 0.0000, 0.0000, 0.0000, 0.0000, 0.0256, 0.0759, -0.5133, 0.1291, 0.0349, -0.0818, 821, 0, 0.0000, 0.0000, -1.0000, 0.0000
9.6800, 0.0000, 0.0000, 0.0000, 0.0000, 0.0000, 0.0000, 0.0270, 0.0762, -0.5159, 0.1279, 0.0359, -0.0814, 822, 0, 0.0000, 0.0000, -1.0000, 0.0000
9.7000, 0.0000, 0.0000, 0.0000, 0.0000, 0.0000, 0.0000, 0.0285, 0.0764, -0.5185, 0.1266, 0.0370, -0.0804, 823, 0, 0.0000, 0.0000, -1.0000, 0.0000
9.7200, 0.0000, 0.0000, 0.0000, 0.0000, 0.0000, 0.0000, 0.0302, 0.0768, -0.5210, 0.1255, 0.0375, -0.0786, 824, 0, 0.0000, 0.0000, -1.0000, 0.0000
9.7400, 0.0000, 0.0000, 0.0000, 0.0000, 0.0000, 0.0000, 0.0320, 0.0770, -0.5235, 0.1244, 0.0374, -0.0783, 825, 0, 0.0000, 0.0000, -1.0000, 0.0000
9.7600, 0.0000, 0.0000, 0.0000, 0.0000, 0.0000, 0.0000, 0.0337, 0.0770, -0.5257, 0.1235, 0.0365, -0.0785, 826, 0, 0.0000, 0.0000, -1.0000, 0.0000
9.7800, 0.0000, 0.0000, 0.0000, 0.0000, 0.0000, 0.0000, 0.0355, 0.0769, -0.5283, 0.1218, 0.0354, -0.0780, 827, 0, 0.0000, 0.0000, -1.0000, 0.0000
9.8000, 0.0000, 0.0000, 0.0000, 0.0000, 0.0000, 0.0000, 0.0373, 0.0771, -0.5305, 0.1207, 0.0356, -0.0774, 828, 0, 0.0000, 0.0000, -1.0000, 0.0000
9.8200, 0.0000, 0.0000, 0.0000, 0.0000, 0.0000, 0.0000, 0.0390, 0.0768, -0.5327, 0.1199, 0.0355, -0.0779, 829, 0, 0.0000, 0.0000, -1.0000, 0.0000
9.8400, 0.0000, 0.0000, 0.0000, 0.0000, 0.0000, 0.0000, 0.0407, 0.0766, -0.5349, 0.1193, 0.0381, -0.0783, 830, 0, 0.0000, 0.0000, -1.0000, 0.0000
9.8600, 0.0000, 0.0000, 0.0000, 0.0000, 0.0000, 0.0000, 0.0423, 0.0764, -0.5366, 0.1187, 0.0425, -0.0797, 831, 0, 0.0000, 0.0000, -1.0000, 0.0000
9.8800, 0.0000, 0.0000, 0.0000, 0.0000, 0.0000, 0.0000, 0.0440, 0.0761, -0.5380, 0.1181, 0.0453, -0.0801, 832, 0, 0.0000, 0.0000, -1.0000, 0.0000
9.9000, 0.0000, 0.0000, 0.0000, 0.0000, 0.0000, 0.0000, 0.0459, 0.0759, -0.5398, 0.1169, 0.0462, -0.0794, 833, 0, 0.0000, 0.0000, -1.0000, 0.0000
9.9200, 0.0000, 0.0000, 0.0000, 0.0000, 0.0000, 0.0000, 0.0474, 0.0753, -0.5414, 0.1159, 0.0464, -0.0778, 834, 0, 0.0000, 0.0000, -1.0000, 0.0000
9.9400, 0.0000, 0.0000, 0.0000, 0.0000, 0.0000, 0.0000, 0.0490, 0.0753, -0.5426, 0.1144, 0.0478, -0.0762, 835, 0, 0.0000, 0.0000, -1.0000, 0.0000
9.9600, 0.0000, 0.0000, 0.0000, 0.0000, 0.0000, 0.0000, 0.0504, 0.0748, -0.5440, 0.1130, 0.0483, -0.0741, 836, 0, 0.0000, 0.0000, -1.0000, 0.0000
9.9800, 0.0000, 0.0000, 0.0000, 0.0000, 0.0000, 0.0000, 0.0518, 0.0743, -0.5453, 0.1115, 0.0485, -0.0730, 837, 0, 0.0000, 0.0000, -1.0000, 0.0000
10.0000, 0.0000, 0.0000, 0.0000, 0.0000, 0.0000, 0.0000, 0.0533, 0.0738, -0.5466, 0.1101, 0.0489, -0.0725, 838, 0, 0.0000, 0.0000, -1.0000, 0.0000
10.0200, 0.0000, 0.0000, 0.0000, 0.0000, 0.0000, 0.0000, 0.0546, 0.0732, -0.5480, 0.1083, 0.0490, -0.0709, 839, 0, 0.0000, 0.0000, -1.0000, 0.0000
10.0400, 0.0000, 0.0000, 0.0000, 0.0000, 0.0000, 0.0000, 0.0558, 0.0727, -0.5491, 0.1070, 0.0494, -0.0713, 840, 0, 0.0067, 0.0067, -1.0033, 0.0000
10.0600, 0.0000, 0.0000, 0.0000, 0.0000, 0.0000, 0.0000, 0.0571, 0.0720, -0.5506, 0.1052, 0.0485, -0.0714, 841, 0, 0.0133, 0.0133, -1.0067, 0.0000
10.0800, 0.0000, 0.0000, 0.0000, 0.0000, 0.0000, 0.0000, 0.0584, 0.0715, -0.5517, 0.1040, 0.0480, -0.0708, 842, 0, 0.0200, 0.0200, -1.0100, 0.0000
10.1000, 0.0000, 0.0000, 0.0000, 0.0000, 0.0000, 0.0000, 0.0594, 0.0709, -0.5530, 0.1029, 0.0486, -0.0704, 843, 0, 0.0267, 0.0267, -1.0133, 0.0000
10.1200, 0.0000, 0.0000, 0.0000, 0.0000, 0.0000, 0.0000, 0.0605, 0.0699, -0.5545, 0.1017, 0.0505, -0.0686, 844, 0, 0.0333, 0.0333, -1.0167, 0.0000
10.1400, 0.0000, 0.0000, 0.0000, 0.0000, 0.0000, 0.0000, 0.0616, 0.0694, -0.5555, 0.1008, 0.0519, -0.0679, 845, 0, 0.0400, 0.0400, -1.0200, 0.0000
10.1590, 0.0000, 0.0000, 0.0000, 0.0000, 0.0000, 0.0000, 0.0625, 0.0687, -0.5567, 0.0998, 0.0527, -0.0674, 846, 0, 0.0467, 0.0467, -1.0233, 0.0000
10.1800, 0.0000, 0.0000, 0.0000, 0.0000, 0.0000, 0.0000, 0.0634, 0.0678, -0.5579, 0.0989, 0.0524, -0.0657, 847, 0, 0.0530, 0.0530, -1.0265, 0.0000
10.2000, 0.0000, 0.0000, 0.0000, 0.0000, 0.0000, 0.0000, 0.0643, 0.0669, -0.5593, 0.0981, 0.0523, -0.0637, 848, 0, 0.0600, 0.0600, -1.0300, 0.0000
10.2200, 0.0000, 0.0000, 0.0000, 0.0000, 0.0000, 0.0000, 0.0650, 0.0661, -0.5606, 0.0972, 0.0514, -0.0615, 849, 0, 0.0667, 0.0667, -1.0333, 0.0000
10.2400, 0.0000, 0.0000, 0.0000, 0.0000, 0.0000, 0.0000, 0.0658, 0.0655, -0.5618, 0.0964, 0.0501, -0.0598, 850, 0, 0.0733, 0.0733, -1.0367, 0.0000
10.2600, 0.0000, 0.0000, 0.0000, 0.0000, 0.0000, 0.0000, 0.0665, 0.0647, -0.5632, 0.0962, 0.0482, -0.0574, 851, 0, 0.0800, 0.0800, -1.0400, 0.0000
10.2800, 0.0000, 0.0000, 0.0000, 0.0000, 0.0000, 0.0000, 0.0672, 0.0640, -0.5646, 0.0954, 0.0461, -0.0545, 852, 0, 0.0867, 0.0867, -1.0433, 0.0000
10.3000, 0.0000, 0.0000, 0.0000, 0.0000, 0.0000, 0.0000, 0.0677, 0.0634, -0.5662, 0.0947, 0.0431, -0.0508, 853, 0, 0.0933, 0.0933, -1.0467, 0.0000
10.3200, 0.0000, 0.0000, 0.0000, 0.0000, 0.0000, 0.0000, 0.0682, 0.0629, -0.5676, 0.0939, 0.0412, -0.0482, 854, 0, 0.1000, 0.1000, -1.0500, 0.0000
10.3400, 0.0000, 0.0000, 0.0000, 0.0000, 0.0000, 0.0000, 0.0686, 0.0624, -0.5691, 0.0931, 0.0405, -0.0448, 855, 0, 0.1067, 0.1067, -1.0533, 0.0000
10.3590, 0.0000, 0.0000, 0.0000, 0.0000, 0.0000, 0.0000, 0.0691, 0.0618, -0.5705, 0.0925, 0.0398, -0.0420, 856, 0, 0.1133, 0.1133, -1.0567, 0.0000
10.3800, 0.0000, 0.0000, 0.0000, 0.0000, 0.0000, 0.0000, 0.0694, 0.0617, -0.5716, 0.0914, 0.0377, -0.0397, 857, 0, 0.1197, 0.1197, -1.0598, 0.0000
10.4000, 0.0000, 0.0000, 0.0000, 0.0000, 0.0000, 0.0000, 0.0700, 0.0615, -0.5732, 0.0910, 0.0347, -0.0361, 858, 0, 0.1267, 0.1267, -1.0633, 0.0000
10.4200, 0.0000, 0.0000, 0.0000, 0.0000, 0.0000, 0.0000, 0.0703, 0.0614, -0.5747, 0.0899, 0.0317, -0.0325, 859, 0, 0.1333, 0.1333, -1.0667, 0.0000
10.4400, 0.0000, 0.0000, 0.0000, 0.0000, 0.0000, 0.0000, 0.0709, 0.0614, -0.5761, 0.0894, 0.0288, -0.0289, 860, 0, 0.1400, 0.1400, -1.0700, 0.0000
10.4600, 0.0000, 0.0000, 0.0000, 0.0000, 0.0000, 0.0000, 0.0716, 0.0618, -0.5774, 0.0891, 0.0259, -0.0260, 861, 0, 0.1467, 0.1467, -1.0733, 0.0000
10.4800, 0.0000, 0.0000, 0.0000, 0.0000, 0.0000, 0.0000, 0.0722, 0.0621, -0.5789, 0.0884, 0.0224, -0.0228, 862, 0, 0.1533, 0.1533, -1.0767, 0.0000
10.5000, 0.0000, 0.0000, 0.0000, 0.0000, 0.0000, 0.0000, 0.0729, 0.0625, -0.5802, 0.0882, 0.0184, -0.0210, 863, 0, 0.1600, 0.1600, -1.0800, 0.0000
10.5200, 0.0000, 0.0000, 0.0000, 0.0000, 0.0000, 0.0000, 0.0736, 0.0633, -0.5816, 0.0875, 0.0146, -0.0185, 864, 0, 0.1667, 0.1667, -1.0833, 0.0000
10.5400, 0.0000, 0.0000, 0.0000, 0.0000, 0.0000, 0.0000, 0.0743, 0.0642, -0.5830, 0.0877, 0.0112, -0.0166, 865, 0, 0.1733, 0.1733, -1.0867, 0.0000
10.5600, 0.0000, 0.0000, 0.0000, 0.0000, 0.0000, 0.0000, 0.0751, 0.0650, -0.5844, 0.0877, 0.0087, -0.0147, 866, 0, 0.1800, 0.1800, -1.0900, 0.0000
10.5800, 0.0000, 0.0000, 0.0000, 0.0000, 0.0000, 0.0000, 0.0762, 0.0663, -0.5858, 0.0884, 0.0068, -0.0134, 867, 0, 0.1867, 0.1867, -1.0933, 0.0000
10.6000, 0.0000, 0.0000, 0.0000, 0.0000, 0.0000, 0.0000, 0.0771, 0.0678, -0.5868, 0.0892, 0.0061, -0.0125, 868, 0, 0.1933, 0.1933, -1.0967, 0.0000
10.6200, 0.0000, 0.0000, 0.0000, 0.0000, 0.0000, 0.0000, 0.0781, 0.0693, -0.5880, 0.0899, 0.0059, -0.0116, 869, 0, 0.2000, 0.2000, -1.1000, 0.0000
10.6400, 0.0000, 0.0000, 0.0000, 0.0000, 0.0000, 0.0000, 0.0792, 0.0709, -0.5891, 0.0911, 0.0058, -0.0109, 870, 0, 0.2067, 0.2067, -1.1033, 0.0000
10.6600, 0.0000, 0.0000, 0.0000, 0.0000, 0.0000, 0.0000, 0.0806, 0.0727, -0.5903, 0.0923, 0.0056, -0.0097, 871, 0, 0.2133, 0.2133, -1.1067, 0.0000
10.6800, 0.0000, 0.0000, 0.0000, 0.0000, 0.0000, 0.0000, 0.0818, 0.0750, -0.5912, 0.0929, 0.0071, -0.0103, 872, 0, 0.2200, 0.2200, -1.1100, 0.0000
10.7000, 0.0000, 0.0000, 0.0000, 0.0000, 0.0000, 0.0000, 0.0833, 0.0771, -0.5922, 0.0943, 0.0072, -0.0105, 873, 0, 0.2267, 0.2267, -1.1133, 0.0000
10.7200, 0.0000, 0.0000, 0.0000, 0.0000, 0.0000, 0.0000, 0.0848, 0.0795, -0.5930, 0.0956, 0.0073, -0.0112, 874, 0, 0.2333, 0.2333, -1.1167, 0.0000
10.7400, 0.0000, 0.0000, 0.0000, 0.0000, 0.0000, 0.0000, 0.0865, 0.0821, -0.5936, 0.0972, 0.0068, -0.0128, 875, 0, 0.2400, 0.2400, -1.1200, 0.0000
10.7600, 0.0000, 0.0000, 0.0000, 0.0000, 0.0000, 0.0000, 0.0883, 0.0848, -0.5944, 0.0987, 0.0067, -0.0127, 876, 0, 0.2467, 0.2467, -1.1233, 0.0000
10.7800, 0.0000, 0.0000, 0.0000, 0.0000, 0.0000, 0.0000, 0.0902, 0.0878, -0.5950, 0.1002, 0.0060, -0.0140, 877, 0, 0.2533, 0.2533, -1.1267, 0.0000
10.7990, 0.0000, 0.0000, 0.0000, 0.0000, 0.0000, 0.0000, 0.0920, 0.0906, -0.5955, 0.1014, 0.0061, -0.0150, 878, 0, 0.2600, 0.2600, -1.1300, 0.0000
10.8190, 0.0000, 0.0000, 0.0000, 0.0000, 0.0000, 0.0000, 0.0943, 0.0940, -0.5958, 0.1035, 0.0061, -0.0171, 879, 0, 0.2663, 0.2663, -1.1332, 0.0000
10.8400, 0.0000, 0.0000, 0.0000, 0.0000, 0.0000, 0.0000, 0.0964, 0.0973, -0.5963, 0.1046, 0.0059, -0.0184, 880, 0, 0.2730, 0.2730, -1.1365, 0.0000
10.8600, 0.0000, 0.0000, 0.0000, 0.0000, 0.0000, 0.0000, 0.0988, 0.1009, -0.5967, 0.1055, 0.0034, -0.0194, 881, 0, 0.2800, 0.2800, -1.1400, 0.0000
10.8800, 0.0000, 0.0000, 0.0000, 0.0000, 0.0000, 0.0000, 0.1013, 0.1046, -0.5974, 0.1067, -0.0006, -0.0196, 882, 0, 0.2867, 0.2867, -1.1433, 0.0000
10.8990, 0.0000, 0.0000, 0.0000, 0.0000, 0.0000, 0.0000, 0.1040, 0.1084, -0.5980, 0.1073, -0.0036, -0.0207, 883, 0, 0.2933, 0.2933, -1.1467, 0.0000
10.9200, 0.0000, 0.0000, 0.0000, 0.0000, 0.0000, 0.0000, 0.1068, 0.1125, -0.5987, 0.1082, -0.0061, -0.0224, 884, 0, 0.2997, 0.2997, -1.1498, 0.0000
10.9400, 0.0000, 0.0000, 0.0000, 0.0000, 0.0000, 0.0000, 0.1095, 0.1165, -0.5997, 0.1092, -0.0068, -0.0225, 885, 0, 0.3067, 0.3067, -1.1533, 0.0000
10.9600, 0.0000, 0.0000, 0.0000, 0.0000, 0.0000, 0.0000, 0.1124, 0.1211, -0.6005, 0.1096, -0.0073, -0.0240, 886, 0, 0.3133, 0.3133, -1.1567, 0.0000
10.9800, 0.0000, 0.0000, 0.0000, 0.0000, 0.0000, 0.0000, 0.1154, 0.1255, -0.6016, 0.1102, -0.0076, -0.0251, 887, 0, 0.3200, 0.3200, -1.1600, 0.0000
11.0000, 0.0000, 0.0000, 0.0000, 0.0000, 0.0000, 0.0000, 0.1183, 0.1301, -0.6026, 0.1109, -0.0059, -0.0279, 888, 0, 0.3267, 0.3267, -1.1633, 0.0000
11.0200, 0.0000, 0.0000, 0.0000, 0.0000, 0.0000, 0.0000, 0.1215, 0.1346, -0.6038, 0.1112, -0.0045, -0.0320, 889, 0, 0.3333, 0.3333, -1.1667, 0.0000
11.0400, 0.0000, 0.0000, 0.0000, 0.0000, 0.0000, 0.0000, 0.1246, 0.1394, -0.6051, 0.1109, -0.0041, -0.0353, 890, 0, 0.3400, 0.3400, -1.1700, 0.0000
11.0600, 0.0000, 0.0000, 0.0000, 0.0000, 0.0000, 0.0000, 0.1282, 0.1445, -0.6066, 0.1114, -0.0056, -0.0352, 891, 0, 0.3467, 0.3467, -1.1733, 0.0000
11.0800, 0.0000, 0.0000, 0.0000, 0.0000, 0.0000, 0.0000, 0.1315, 0.1498, -0.6081, 0.1107, -0.0082, -0.0363, 892, 0, 0.3533, 0.3533, -1.1767, 0.0000
11.1000, 0.0000, 0.0000, 0.0000, 0.0000, 0.0000, 0.0000, 0.1352, 0.1549, -0.6099, 0.1107, -0.0099, -0.0368, 893, 0, 0.3600, 0.3600, -1.1800, 0.0000
11.1200, 0.0000, 0.0000, 0.0000, 0.0000, 0.0000, 0.0000, 0.1390, 0.1604, -0.6116, 0.1100, -0.0116, -0.0379, 894, 0, 0.3667, 0.3667, -1.1833, 0.0000
11.1400, 0.0000, 0.0000, 0.0000, 0.0000, 0.0000, 0.0000, 0.1427, 0.1656, -0.6134, 0.1103, -0.0089, -0.0419, 895, 0, 0.3733, 0.3733, -1.1867, 0.0000
11.1590, 0.0000, 0.0000, 0.0000, 0.0000, 0.0000, 0.0000, 0.1462, 0.1705, -0.6149, 0.1098, -0.0008, -0.0541, 896, 0, 0.3800, 0.3800, -1.1900, 0.0000
11.1800, 0.0000, 0.0000, 0.0000, 0.0000, 0.0000, 0.0000, 0.1501, 0.1754, -0.6167, 0.1095, 0.0045, -0.0668, 897, 0, 0.3863, 0.3863, -1.1932, 0.0000
11.2000, 0.0000, 0.0000, 0.0000, 0.0000, 0.0000, 0.0000, 0.1544, 0.1807, -0.6188, 0.1097, 0.0033, -0.0756, 898, 0, 0.3933, 0.3933, -1.1967, 0.0000
11.2200, 0.0000, 0.0000, 0.0000, 0.0000, 0.0000, 0.0000, 0.1586, 0.1861, -0.6213, 0.1083, 0.0004, -0.0784, 899, 0, 0.4000, 0.4000, -1.2000, 0.0000
11.2400, 0.0000, 0.0000, 0.0000, 0.0000, 0.0000, 0.0000, 0.1632, 0.1915, -0.6242, 0.1073, -0.0053, -0.0755, 900, 0, 0.4067, 0.4067, -1.2033, 0.0000
11.2600, 0.0000, 0.0000, 0.0000, 0.0000, 0.0000, 0.0000, 0.1679, 0.1972, -0.6269, 0.1063, -0.0085, -0.0716, 901, 0, 0.4133, 0.4133, -1.2067, 0.0000
11.2800, 0.0000, 0.0000, 0.0000, 0.0000, 0.0000, 0.0000, 0.1727, 0.2029, -0.6297, 0.1060, -0.0126, -0.0681, 902, 0, 0.4200, 0.4200, -1.2100, 0.0000
11.2990, 0.0000, 0.0000, 0.0000, 0.0000, 0.0000, 0.0000, 0.1771, 0.2083, -0.6327, 0.1045, -0.0137, -0.0650, 903, 0, 0.4267, 0.4267, -1.2133, 0.0000
11.3200, 0.0000, 0.0000, 0.0000, 0.0000, 0.0000, 0.0000, 0.1821, 0.2137, -0.6357, 0.1038, -0.0140, -0.0622, 904, 0, 0.4330, 0.4330, -1.2165, 0.0000
11.3400, 0.0000, 0.0000, 0.0000, 0.0000, 0.0000, 0.0000, 0.1871, 0.2191, -0.6386, 0.1030, -0.0137, -0.0600, 905, 0, 0.4400, 0.4400, -1.2200, 0.0000
11.3600, 0.0000, 0.0000, 0.0000, 0.0000, 0.0000, 0.0000, 0.1922, 0.2245, -0.6416, 0.1021, -0.0134, -0.0589, 906, 0, 0.4467, 0.4467, -1.2233, 0.0000
11.3800, 0.0000, 0.0000, 0.0000, 0.0000, 0.0000, 0.0000, 0.1974, 0.2298, -0.6444, 0.1014, -0.0133, -0.0585, 907, 0, 0.4533, 0.4533, -1.2267, 0.0000
11.4000, 0.0000, 0.0000, 0.0000, 0.0000, 0.0000, 0.0000, 0.2029, 0.2352, -0.6474, 0.1005, -0.0134, -0.0573, 908, 0, 0.4600, 0.4600, -1.2300, 0.0000
11.4200, 0.0000, 0.0000, 0.0000, 0.0000, 0.0000, 0.0000, 0.2084, 0.2406, -0.6503, 0.0997, -0.0131, -0.0565, 909, 0, 0.4667, 0.4667, -1.2333, 0.0000
11.4400, 0.0000, 0.0000, 0.0000, 0.0000, 0.0000, 0.0000, 0.2141, 0.2459, -0.6534, 0.0987, -0.0129, -0.0550, 910, 0, 0.4733, 0.4733, -1.2367, 0.0000
11.4600, 0.0000, 0.0000, 0.0000, 0.0000, 0.0000, 0.0000, 0.2197, 0.2513, -0.6563, 0.0975, -0.0120, -0.0543, 911, 0, 0.4800, 0.4800, -1.2400, 0.0000
11.4800, 0.0000, 0.0000, 0.0000, 0.0000, 0.0000, 0.0000, 0.2257, 0.2568, -0.6592, 0.0966, -0.0117, -0.0540, 912, 0, 0.4867, 0.4867, -1.2433, 0.0000
11.5000, 0.0000, 0.0000, 0.0000, 0.0000, 0.0000, 0.0000, 0.2318, 0.2621, -0.6625, 0.0959, -0.0115, -0.0528, 913, 0, 0.4933, 0.4933, -1.2467, 0.0000
11.5200, 0.0000, 0.0000, 0.0000, 0.0000, 0.0000, 0.0000, 0.2377, 0.2676, -0.6655, 0.0948, -0.0107, -0.0523, 914, 0, 0.5000, 0.5000, -1.2500, 0.0000
11.5400, 0.0000, 0.0000, 0.0000, 0.0000, 0.0000, 0.0000, 0.2440, 0.2730, -0.6687, 0.0940, -0.0098, -0.0520, 915, 0, 0.5067, 0.5067, -1.2533, 0.0000
11.5600, 0.0000, 0.0000, 0.0000, 0.0000, 0.0000, 0.0000, 0.2505, 0.2786, -0.6720, 0.0935, -0.0084, -0.0508, 916, 0, 0.5133, 0.5133, -1.2567, 0.0000
11.5800, 0.0000, 0.0000, 0.0000, 0.0000, 0.0000, 0.0000, 0.2569, 0.2842, -0.6750, 0.0927, -0.0070, -0.0513, 917, 0, 0.5200, 0.5200, -1.2600, 0.0000
11.6000, 0.0000, 0.0000, 0.0000, 0.0000, 0.0000, 0.0000, 0.2634, 0.2896, -0.6783, 0.0916, -0.0060, -0.0497, 918, 0, 0.5267, 0.5267, -1.2633, 0.0000
11.6200, 0.0000, 0.0000, 0.0000, 0.0000, 0.0000, 0.0000, 0.2699, 0.2952, -0.6816, 0.0908, -0.0044, -0.0493, 919, 0, 0.5333, 0.5333, -1.2667, 0.0000
11.6400, 0.0000, 0.0000, 0.0000, 0.0000, 0.0000, 0.0000, 0.2767, 0.3010, -0.6849, 0.0900, -0.0034, -0.0480, 920, 0, 0.5400, 0.5400, -1.2700, 0.0000
11.6600, 0.0000, 0.0000, 0.0000, 0.0000, 0.0000, 0.0000, 0.2834, 0.3066, -0.6883, 0.0890, -0.0021, -0.0474, 921, 0, 0.5467, 0.5467, -1.2733, 0.0000
11.6800, 0.0000, 0.0000, 0.0000, 0.0000, 0.0000, 0.0000, 0.2903, 0.3122, -0.6916, 0.0884, -0.0009, -0.0467, 922, 0, 0.5533, 0.5533, -1.2767, 0.0000
11.7000, 0.0000, 0.0000, 0.0000, 0.0000, 0.0000, 0.0000, 0.2972, 0.3182, -0.6949, 0.0872, 0.0020, -0.0473, 923, 0, 0.5600, 0.5600, -1.2800, 0.0000
11.7200, 0.0000, 0.0000, 0.0000, 0.0000, 0.0000, 0.0000, 0.3039, 0.3237, -0.6981, 0.0867, 0.0085, -0.0498, 924, 0, 0.5667, 0.5667, -1.2833, 0.0000
11.7400, 0.0000, 0.0000, 0.0000, 0.0000, 0.0000, 0.0000, 0.3106, 0.3293, -0.7013, 0.0862, 0.0145, -0.0519, 925, 0, 0.5733, 0.5733, -1.2867, 0.0000
11.7600, 0.0000, 0.0000, 0.0000, 0.0000, 0.0000, 0.0000, 0.3177, 0.3350, -0.7047, 0.0859, 0.0175, -0.0524, 926, 0, 0.5800, 0.5800, -1.2900, 0.0000
11.7800, 0.0000, 0.0000, 0.0000, 0.0000, 0.0000, 0.0000, 0.3247, 0.3409, -0.7080, 0.0853, 0.0193, -0.0521, 927, 0, 0.5867, 0.5867, -1.2933, 0.0000
11.8000, 0.0000, 0.0000, 0.0000, 0.0000, 0.0000, 0.0000, 0.3318, 0.3469, -0.7113, 0.0848, 0.0200, -0.0515, 928, 0, 0.5933, 0.5933, -1.2967, 0.0000
11.8200, 0.0000, 0.0000, 0.0000, 0.0000, 0.0000, 0.0000, 0.3386, 0.3526, -0.7147, 0.0840, 0.0200, -0.0512, 929, 0, 0.6000, 0.6000, -1.3000, 0.0000
11.8400, 0.0000, 0.0000, 0.0000, 0.0000, 0.0000, 0.0000, 0.3456, 0.3584, -0.7181, 0.0833, 0.0209, -0.0509, 930, 0, 0.6067, 0.6067, -1.3033, 0.0000
11.8600, 0.0000, 0.0000, 0.0000, 0.0000, 0.0000, 0.0000, 0.3526, 0.3644, -0.7213, 0.0832, 0.0225, -0.0529, 931, 0, 0.6133, 0.6133, -1.3067, 0.0000
11.8790, 0.0000, 0.0000, 0.0000, 0.0000, 0.0000, 0.0000, 0.3593, 0.3698, -0.7245, 0.0839, 0.0298, -0.0609, 932, 0, 0.6200, 0.6200, -1.3100, 0.0000
11.9000, 0.0000, 0.0000, 0.0000, 0.0000, 0.0000, 0.0000, 0.3660, 0.3752, -0.7278, 0.0838, 0.0355, -0.0680, 933, 0, 0.6263, 0.6263, -1.3132, 0.0000
11.9200, 0.0000, 0.0000, 0.0000, 0.0000, 0.0000, 0.0000, 0.3729, 0.3808, -0.7314, 0.0840, 0.0366, -0.0719, 934, 0, 0.6333, 0.6333, -1.3167, 0.0000
11.9400, 0.0000, 0.0000, 0.0000, 0.0000, 0.0000, 0.0000, 0.3798, 0.3866, -0.7350, 0.0837, 0.0356, -0.0726, 935, 0, 0.6400, 0.6400, -1.3200, 0.0000
11.9600, 0.0000, 0.0000, 0.0000, 0.0000, 0.0000, 0.0000, 0.3866, 0.3922, -0.7388, 0.0832, 0.0337, -0.0716, 936, 0, 0.6467, 0.6467, -1.3233, 0.0000
11.9800, 0.0000, 0.0000, 0.0000, 0.0000, 0.0000, 0.0000, 0.3933, 0.3977, -0.7426, 0.0827, 0.0324, -0.0700, 937, 0, 0.6533, 0.6533, -1.3267, 0.0000
12.0000, 0.0000, 0.0000, 0.0000, 0.0000, 0.0000, 0.0000, 0.4001, 0.4034, -0.7463, 0.0826, 0.0314, -0.0688, 938, 0, 0.6600, 0.6600, -1.3300, 0.0000
12.0200, 0.0000, 0.0000, 0.0000, 0.0000, 0.0000, 0.0000, 0.4067, 0.4089, -0.7501, 0.0823, 0.0306, -0.0678, 939, 0, 0.6667, 0.6667, -1.3333, 0.0000
12.0400, 0.0000, 0.0000, 0.0000, 0.0000, 0.0000, 0.0000, 0.4132, 0.4142, -0.7540, 0.0815, 0.0295, -0.0663, 940, 0, 0.6733, 0.6733, -1.3367, 0.0000
12.0600, 0.0000, 0.0000, 0.0000, 0.0000, 0.0000, 0.0000, 0.4197, 0.4195, -0.7577, 0.0819, 0.0312, -0.0694, 941, 0, 0.6800, 0.6800, -1.3400, 0.0000
12.0800, 0.0000, 0.0000, 0.0000, 0.0000, 0.0000, 0.0000, 0.4260, 0.4244, -0.7613, 0.0829, 0.0395, -0.0791, 942, 0, 0.6867, 0.6867, -1.3433, 0.0000
12.1000, 0.0000, 0.0000, 0.0000, 0.0000, 0.0000, 0.0000, 0.4323, 0.4292, -0.7652, 0.0842, 0.0462, -0.0887, 943, 0, 0.6933, 0.6933, -1.3467, 0.0000
12.1200, 0.0000, 0.0000, 0.0000, 0.0000, 0.0000, 0.0000, 0.4386, 0.4337, -0.7696, 0.0845, 0.0469, -0.0935, 944, 0, 0.7000, 0.7000, -1.3500, 0.0000
12.1400, 0.0000, 0.0000, 0.0000, 0.0000, 0.0000, 0.0000, 0.4450, 0.4387, -0.7741, 0.0842, 0.0434, -0.0934, 945, 0, 0.7067, 0.7067, -1.3533, 0.0000
12.1600, 0.0000, 0.0000, 0.0000, 0.0000, 0.0000, 0.0000, 0.4514, 0.4435, -0.7790, 0.0837, 0.0397, -0.0886, 946, 0, 0.7133, 0.7133, -1.3567, 0.0000
12.1800, 0.0000, 0.0000, 0.0000, 0.0000, 0.0000, 0.0000, 0.4575, 0.4481, -0.7837, 0.0829, 0.0404, -0.0851, 947, 0, 0.7200, 0.7200, -1.3600, 0.0000
12.2000, 0.0000, 0.0000, 0.0000, 0.0000, 0.0000, 0.0000, 0.4637, 0.4528, -0.7885, 0.0828, 0.0397, -0.0783, 948, 0, 0.7267, 0.7267, -1.3633, 0.0000
12.2200, 0.0000, 0.0000, 0.0000, 0.0000, 0.0000, 0.0000, 0.4698, 0.4575, -0.7933, 0.0823, 0.0373, -0.0718, 949, 0, 0.7333, 0.7333, -1.3667, 0.0000
12.2400, 0.0000, 0.0000, 0.0000, 0.0000, 0.0000, 0.0000, 0.4760, 0.4620, -0.7979, 0.0820, 0.0332, -0.0655, 950, 0, 0.7400, 0.7400, -1.3700, 0.0000
12.2600, 0.0000, 0.0000, 0.0000, 0.0000, 0.0000, 0.0000, 0.4821, 0.4662, -0.8027, 0.0813, 0.0297, -0.0595, 951, 0, 0.7467, 0.7467, -1.3733, 0.0000
12.2790, 0.0000, 0.0000, 0.0000, 0.0000, 0.0000, 0.0000, 0.4882, 0.4708, -0.8073, 0.0806, 0.0257, -0.0537, 952, 0, 0.7533, 0.7533, -1.3767, 0.0000
12.3000, 0.0000, 0.0000, 0.0000, 0.0000, 0.0000, 0.0000, 0.4944, 0.4752, -0.8116, 0.0803, 0.0236, -0.0495, 953, 0, 0.7597, 0.7597, -1.3798, 0.0000
12.3200, 0.0000, 0.0000, 0.0000, 0.0000, 0.0000, 0.0000, 0.5005, 0.4793, -0.8160, 0.0800, 0.0215, -0.0454, 954, 0, 0.7667, 0.7667, -1.3833, 0.0000
12.3400, 0.0000, 0.0000, 0.0000, 0.0000, 0.0000, 0.0000, 0.5065, 0.4838, -0.8201, 0.0796, 0.0202, -0.0422, 955, 0, 0.7733, 0.7733, -1.3867, 0.0000
12.3600, 0.0000, 0.0000, 0.0000, 0.0000, 0.0000, 0.0000, 0.5126, 0.4882, -0.8242, 0.0794, 0.0193, -0.0394, 956, 0, 0.7800, 0.7800, -1.3900, 0.0000
12.3800, 0.0000, 0.0000, 0.0000, 0.0000, 0.0000, 0.0000, 0.5187, 0.4928, -0.8282, 0.0788, 0.0185, -0.0357, 957, 0, 0.7867, 0.7867, -1.3933, 0.0000
12.4000, 0.0000, 0.0000, 0.0000, 0.0000, 0.0000, 0.0000, 0.5249, 0.4972, -0.8322, 0.0783, 0.0175, -0.0335, 958, 0, 0.7933, 0.7933, -1.3967, 0.0000
12.4200, 0.0000, 0.0000, 0.0000, 0.0000, 0.0000, 0.0000, 0.5310, 0.5018, -0.8360, 0.0777, 0.0157, -0.0310, 959, 0, 0.8000, 0.8000, -1.4000, 0.0000
12.4400, 0.0000, 0.0000, 0.0000, 0.0000, 0.0000, 0.0000, 0.5371, 0.5066, -0.8398, 0.0772, 0.0146, -0.0299, 960, 0, 0.8067, 0.8067, -1.4033, 0.0000
12.4600, 0.0000, 0.0000, 0.0000, 0.0000, 0.0000, 0.0000, 0.5433, 0.5113, -0.8436, 0.0766, 0.0137, -0.0280, 961, 0, 0.8133, 0.8133, -1.4067, 0.0000
12.4800, 0.0000, 0.0000, 0.0000, 0.0000, 0.0000, 0.0000, 0.5496, 0.5161, -0.8473, 0.0766, 0.0136, -0.0268, 962, 0, 0.8200, 0.8200, -1.4100, 0.0000
12.5000, 0.0000, 0.0000, 0.0000, 0.0000, 0.0000, 0.0000, 0.5558, 0.5211, -0.8508, 0.0762, 0.0128, -0.0267, 963, 0, 0.8267, 0.8267, -1.4133, 0.0000
12.5190, 0.0000, 0.0000, 0.0000, 0.0000, 0.0000, 0.0000, 0.5621, 0.5262, -0.8543, 0.0758, 0.0117, -0.0247, 964, 0, 0.8333, 0.8333, -1.4167, 0.0000
12.5400, 0.0000, 0.0000, 0.0000, 0.0000, 0.0000, 0.0000, 0.5685, 0.5315, -0.8579, 0.0755, 0.0119, -0.0243, 965, 0, 0.8397, 0.8397, -1.4198, 0.0000
12.5600, 0.0000, 0.0000, 0.0000, 0.0000, 0.0000, 0.0000, 0.5749, 0.5366, -0.8612, 0.0761, 0.0143, -0.0266, 966, 0, 0.8467, 0.8467, -1.4233, 0.0000
12.5800, 0.0000, 0.0000, 0.0000, 0.0000, 0.0000, 0.0000, 0.5811, 0.5416, -0.8645, 0.0771, 0.0232, -0.0345, 967, 0, 0.8533, 0.8533, -1.4267, 0.0000
12.5990, 0.0000, 0.0000, 0.0000, 0.0000, 0.0000, 0.0000, 0.5870, 0.5468, -0.8679, 0.0771, 0.0298, -0.0426, 968, 0, 0.8600, 0.8600, -1.4300, 0.0000
12.6200, 0.0000, 0.0000, 0.0000, 0.0000, 0.0000, 0.0000, 0.5935, 0.5521, -0.8718, 0.0773, 0.0318, -0.0461, 969, 0, 0.8663, 0.8663, -1.4332, 0.0000
12.6400, 0.0000, 0.0000, 0.0000, 0.0000, 0.0000, 0.0000, 0.5999, 0.5578, -0.8756, 0.0772, 0.0299, -0.0461, 970, 0, 0.8733, 0.8733, -1.4367, 0.0000
12.6590, 0.0000, 0.0000, 0.0000, 0.0000, 0.0000, 0.0000, 0.6064, 0.5636, -0.8796, 0.0769, 0.0264, -0.0426, 971, 0, 0.8800, 0.8800, -1.4400, 0.0000
12.6790, 0.0000, 0.0000, 0.0000, 0.0000, 0.0000, 0.0000, 0.6128, 0.5695, -0.8836, 0.0768, 0.0243, -0.0378, 972, 0, 0.8863, 0.8863, -1.4432, 0.0000
12.7000, 0.0000, 0.0000, 0.0000, 0.0000, 0.0000, 0.0000, 0.6192, 0.5753, -0.8877, 0.0764, 0.0210, -0.0328, 973, 0, 0.8930, 0.8930, -1.4465, 0.0000
12.7200, 0.0000, 0.0000, 0.0000, 0.0000, 0.0000, 0.0000, 0.6256, 0.5813, -0.8917, 0.0765, 0.0190, -0.0291, 974, 0, 0.9000, 0.9000, -1.4500, 0.0000
12.7400, 0.0000, 0.0000, 0.0000, 0.0000, 0.0000, 0.0000, 0.6320, 0.5873, -0.8956, 0.0762, 0.0169, -0.0271, 975, 0, 0.9067, 0.9067, -1.4533, 0.0000
12.7590, 0.0000, 0.0000, 0.0000, 0.0000, 0.0000, 0.0000, 0.6384, 0.5933, -0.8995, 0.0766, 0.0174, -0.0261, 976, 0, 0.9133, 0.9133, -1.4567, 0.0000
12.7800, 0.0000, 0.0000, 0.0000, 0.0000, 0.0000, 0.0000, 0.6447, 0.5994, -0.9032, 0.0768, 0.0176, -0.0251, 977, 0, 0.9197, 0.9197, -1.4598, 0.0000
12.8000, 0.0000, 0.0000, 0.0000, 0.0000, 0.0000, 0.0000, 0.6510, 0.6056, -0.9070, 0.0767, 0.0186, -0.0245, 978, 0, 0.9267, 0.9267, -1.4633, 0.0000
12.8200, 0.0000, 0.0000, 0.0000, 0.0000, 0.0000, 0.0000, 0.6576, 0.6120, -0.9106, 0.0766, 0.0185, -0.0254, 979, 0, 0.9333, 0.9333, -1.4667, 0.0000
12.8390, 0.0000, 0.0000, 0.0000, 0.0000, 0.0000, 0.0000, 0.6640, 0.6183, -0.9143, 0.0765, 0.0176, -0.0261, 980, 0, 0.9400, 0.9400, -1.4700, 0.0000
12.8600, 0.0000, 0.0000, 0.0000, 0.0000, 0.0000, 0.0000, 0.6704, 0.6247, -0.9179, 0.0765, 0.0173, -0.0268, 981, 0, 0.9463, 0.9463, -1.4732, 0.0000
12.8800, 0.0000, 0.0000, 0.0000, 0.0000, 0.0000, 0.0000, 0.6769, 0.6314, -0.9214, 0.0765, 0.0156, -0.0275, 982, 0, 0.9533, 0.9533, -1.4767, 0.0000
12.9000, 0.0000, 0.0000, 0.0000, 0.0000, 0.0000, 0.0000, 0.6835, 0.6380, -0.9251, 0.0767, 0.0159, -0.0284, 983, 0, 0.9600, 0.9600, -1.4800, 0.0000
12.9190, 0.0000, 0.0000, 0.0000, 0.0000, 0.0000, 0.0000, 0.6899, 0.6446, -0.9285, 0.0769, 0.0181, -0.0316, 984, 0, 0.9667, 0.9667, -1.4833, 0.0000
12.9400, 0.0000, 0.0000, 0.0000, 0.0000, 0.0000, 0.0000, 0.6964, 0.6514, -0.9319, 0.0768, 0.0202, -0.0334, 985, 0, 0.9730, 0.9730, -1.4865, 0.0000
12.9600, 0.0000, 0.0000, 0.0000, 0.0000, 0.0000, 0.0000, 0.7028, 0.6585, -0.9354, 0.0771, 0.0201, -0.0326, 986, 0, 0.9800, 0.9800, -1.4900, 0.0000
12.9800, 0.0000, 0.0000, 0.0000, 0.0000, 0.0000, 0.0000, 0.7094, 0.6654, -0.9390, 0.0772, 0.0194, -0.0322, 987, 0, 0.9867, 0.9867, -1.4933, 0.0000
12.9990, 0.0000, 0.0000, 0.0000, 0.0000, 0.0000, 0.0000, 0.7159, 0.6723, -0.9425, 0.0774, 0.0183, -0.0329, 988, 0, 0.9933, 0.9933, -1.4967, 0.0000
13.0200, 0.0000, 0.0000, 0.0000, 0.0000, 0.0000, 0.0000, 0.7225, 0.6795, -0.9459, 0.0773, 0.0172, -0.0327, 989, 0, 0.9997, 0.9997, -1.4998, 0.0000
13.0400, 0.0000, 0.0000, 0.0000, 0.0000, 0.0000, 0.0000, 0.7291, 0.6868, -0.9494, 0.0774, 0.0173, -0.0331, 990, 0, 1.0000, 1.0000, -1.5000, 0.0000
13.0600, 0.0000, 0.0000, 0.0000, 0.0000, 0.0000, 0.0000, 0.7357, 0.6940, -0.9528, 0.0775, 0.0158, -0.0351, 991, 0, 1.0000, 1.0000, -1.5000, 0.0000
13.0790, 0.0000, 0.0000, 0.0000, 0.0000, 0.0000, 0.0000, 0.7423, 0.7012, -0.9564, 0.0773, 0.0155, -0.0360, 992, 0, 1.0000, 1.0000, -1.5000, 0.0000
13.1000, 0.0000, 0.0000, 0.0000, 0.0000, 0.0000, 0.0000, 0.7490, 0.7086, -0.9598, 0.0775, 0.0142, -0.0372, 993, 0, 1.0000, 1.0000, -1.5000, 0.0000
13.1200, 0.0000, 0.0000, 0.0000, 0.0000, 0.0000, 0.0000, 0.7556, 0.7160, -0.9634, 0.0774, 0.0144, -0.0378, 994, 0, 1.0000, 1.0000, -1.5000, 0.0000
13.1400, 0.0000, 0.0000, 0.0000, 0.0000, 0.0000, 0.0000, 0.7624, 0.7234, -0.9669, 0.0774, 0.0147, -0.0402, 995, 0, 1.0000, 1.0000, -1.5000, 0.0000
13.1590, 0.0000, 0.0000, 0.0000, 0.0000, 0.0000, 0.0000, 0.7690, 0.7307, -0.9704, 0.0777, 0.0191, -0.0466, 996, 0, 1.0000, 1.0000, -1.5000, 0.0000
13.1800, 0.0000, 0.0000, 0.0000, 0.0000, 0.0000, 0.0000, 0.7754, 0.7379, -0.9734, 0.0782, 0.0275, -0.0576, 997, 0, 1.0000, 1.0000, -1.5000, 0.0000
13.2000, 0.0000, 0.0000, 0.0000, 0.0000, 0.0000, 0.0000, 0.7820, 0.7448, -0.9769, 0.0787, 0.0319, -0.0670, 998, 0, 1.0000, 1.0000, -1.5000, 0.0000
13.2200, 0.0000, 0.0000, 0.0000, 0.0000, 0.0000, 0.0000, 0.7887, 0.7522, -0.9802, 0.0787, 0.0338, -0.0716, 999, 0, 1.0000, 1.0000, -1.5000, 0.0000
13.2390, 0.0000, 0.0000, 0.0000, 0.0000, 0.0000, 0.0000, 0.7955, 0.7596, -0.9837, 0.0793, 0.0340, -0.0724, 1000, 0, 1.0000, 1.0000, -1.5000, 0.0000
13.2600, 0.0000, 0.0000, 0.0000, 0.0000, 0.0000, 0.0000, 0.8021, 0.7670, -0.9871, 0.0791, 0.0342, -0.0721, 1001, 0, 1.0000, 1.0000, -1.5000, 0.0000
13.2800, 0.0000, 0.0000, 0.0000, 0.0000, 0.0000, 0.0000, 0.8087, 0.7741, -0.9906, 0.0791, 0.0333, -0.0713, 1002, 0, 1.0000, 1.0000, -1.5000, 0.0000
13.3000, 0.0000, 0.0000, 0.0000, 0.0000, 0.0000, 0.0000, 0.8153, 0.7812, -0.9941, 0.0791, 0.0337, -0.0712, 1003, 0, 1.0000, 1.0000, -1.5000, 0.0000
13.3190, 0.0000, 0.0000, 0.0000, 0.0000, 0.0000, 0.0000, 0.8218, 0.7882, -0.9975, 0.0792, 0.0346, -0.0721, 1004, 0, 1.0000, 1.0000, -1.5000, 0.0000
13.3400, 0.0000, 0.0000, 0.0000, 0.0000, 0.0000, 0.0000, 0.8282, 0.7951, -1.0008, 0.0795, 0.0373, -0.0740, 1005, 0, 1.0000, 1.0000, -1.5000, 0.0000
13.3600, 0.0000, 0.0000, 0.0000, 0.0000, 0.0000, 0.0000, 0.8346, 0.8017, -1.0041, 0.0797, 0.0399, -0.0756, 1006, 0, 1.0000, 1.0000, -1.5000, 0.0000
13.3800, 0.0000, 0.0000, 0.0000, 0.0000, 0.0000, 0.0000, 0.8407, 0.8083, -1.0073, 0.0798, 0.0421, -0.0780, 1007, 0, 1.0000, 1.0000, -1.5000, 0.0000
13.3990, 0.0000, 0.0000, 0.0000, 0.0000, 0.0000, 0.0000, 0.8471, 0.8149, -1.0104, 0.0803, 0.0433, -0.0807, 1008, 0, 1.0000, 1.0000, -1.5000, 0.0000
13.4200, 0.0000, 0.0000, 0.0000, 0.0000, 0.0000, 0.0000, 0.8535, 0.8213, -1.0137, 0.0805, 0.0450, -0.0825, 1009, 0, 1.0000, 1.0000, -1.5000, 0.0000
13.4400, 0.0000, 0.0000, 0.0000, 0.0000, 0.0000, 0.0000, 0.8597, 0.8275, -1.0168, 0.0801, 0.0480, -0.0841, 1010, 0, 1.0000, 1.0000, -1.5000, 0.0000
13.4600, 0.0000, 0.0000, 0.0000, 0.0000, 0.0000, 0.0000, 0.8657, 0.8338, -1.0198, 0.0798, 0.0475, -0.0840, 1011, 0, 1.0000, 1.0000, -1.5000, 0.0000
13.4800, 0.0000, 0.0000, 0.0000, 0.0000, 0.0000, 0.0000, 0.8717, 0.8400, -1.0228, 0.0800, 0.0492, -0.0847, 1012, 0, 1.0000, 1.0000, -1.5000, 0.0000
13.4990, 0.0000, 0.0000, 0.0000, 0.0000, 0.0000, 0.0000, 0.8776, 0.8458, -1.0259, 0.0802, 0.0500, -0.0849, 1013, 0, 1.0000, 1.0000, -1.5000, 0.0000
13.5190, 0.0000, 0.0000, 0.0000, 0.0000, 0.0000, 0.0000, 0.8836, 0.8516, -1.0289, 0.0800, 0.0519, -0.0851, 1014, 0, 1.0000, 1.0000, -1.5000, 0.0000
13.5400, 0.0000, 0.0000, 0.0000, 0.0000, 0.0000, 0.0000, 0.8893, 0.8573, -1.0317, 0.0803, 0.0545, -0.0846, 1015, 0, 1.0000, 1.0000, -1.5000, 0.0000
13.5590, 0.0000, 0.0000, 0.0000, 0.0000, 0.0000, 0.0000, 0.8949, 0.8629, -1.0345, 0.0806, 0.0557, -0.0843, 1016, 0, 1.0000, 1.0000, -1.5000, 0.0000
13.5800, 0.0000, 0.0000, 0.0000, 0.0000, 0.0000, 0.0000, 0.9005, 0.8682, -1.0374, 0.0805, 0.0587, -0.0863, 1017, 0, 1.0000, 1.0000, -1.5000, 0.0000
13.6000, 0.0000, 0.0000, 0.0000, 0.0000, 0.0000, 0.0000, 0.9059, 0.8733, -1.0400, 0.0804, 0.0593, -0.0872, 1018, 0, 1.0000, 1.0000, -1.5000, 0.0000
13.6200, 0.0000, 0.0000, 0.0000, 0.0000, 0.0000, 0.0000, 0.9112, 0.8786, -1.0425, 0.0803, 0.0601, -0.0880, 1019, 0, 1.0000, 1.0000, -1.5000, 0.0000
13.6390, 0.0000, 0.0000, 0.0000, 0.0000, 0.0000, 0.0000, 0.9164, 0.8834, -1.0452, 0.0800, 0.0612, -0.0896, 1020, 0, 1.0000, 1.0000, -1.5000, 0.0000
13.6600, 0.0000, 0.0000, 0.0000, 0.0000, 0.0000, 0.0000, 0.9215, 0.8881, -1.0479, 0.0798, 0.0612, -0.0901, 1021, 0, 1.0000, 1.0000, -1.5000, 0.0000
13.6800, 0.0000, 0.0000, 0.0000, 0.0000, 0.0000, 0.0000, 0.9264, 0.8928, -1.0503, 0.0796, 0.0618, -0.0901, 1022, 0, 1.0000, 1.0000, -1.5000, 0.0000
13.7000, 0.0000, 0.0000, 0.0000, 0.0000, 0.0000, 0.0000, 0.9311, 0.8975, -1.0527, 0.0797, 0.0632, -0.0904, 1023, 0, 1.0000, 1.0000, -1.5000, 0.0000
13.7190, 0.0000, 0.0000, 0.0000, 0.0000, 0.0000, 0.0000, 0.9359, 0.9018, -1.0553, 0.0798, 0.0656, -0.0909, 1024, 0, 1.0000, 1.0000, -1.5000, 0.0000
13.7400, 0.0000, 0.0000, 0.0000, 0.0000, 0.0000, 0.0000, 0.9404, 0.9059, -1.0577, 0.0795, 0.0666, -0.0909, 1025, 0, 1.0000, 1.0000, -1.5000, 0.0000
13.7600, 0.0000, 0.0000, 0.0000, 0.0000, 0.0000, 0.0000, 0.9448, 0.9101, -1.0599, 0.0797, 0.0671, -0.0904, 1026, 0, 1.0000, 1.0000, -1.5000, 0.0000
13.7800, 0.0000, 0.0000, 0.0000, 0.0000, 0.0000, 0.0000, 0.9491, 0.9141, -1.0624, 0.0794, 0.0672, -0.0895, 1027, 0, 1.0000, 1.0000, -1.5000, 0.0000
13.7990, 0.0000, 0.0000, 0.0000, 0.0000, 0.0000, 0.0000, 0.9533, 0.9180, -1.0648, 0.0793, 0.0686, -0.0891, 1028, 0, 1.0000, 1.0000, -1.5000, 0.0000
13.8200, 0.0000, 0.0000, 0.0000, 0.0000, 0.0000, 0.0000, 0.9573, 0.9217, -1.0670, 0.0789, 0.0682, -0.0879, 1029, 0, 1.0000, 1.0000, -1.5000, 0.0000
13.8400, 0.0000, 0.0000, 0.0000, 0.0000, 0.0000, 0.0000, 0.9610, 0.9253, -1.0692, 0.0787, 0.0690, -0.0880, 1030, 0, 1.0000, 1.0000, -1.5000, 0.0000
13.8600, 0.0000, 0.0000, 0.0000, 0.0000, 0.0000, 0.0000, 0.9647, 0.9287, -1.0714, 0.0782, 0.0695, -0.0880, 1031, 0, 1.0000, 1.0000, -1.5000, 0.0000
13.8790, 0.0000, 0.0000, 0.0000, 0.0000, 0.0000, 0.0000, 0.9682, 0.9320, -1.0736, 0.0779, 0.0696, -0.0876, 1032, 0, 1.0000, 1.0000, -1.5000, 0.0000
13.9000, 0.0000, 0.0000, 0.0000, 0.0000, 0.0000, 0.0000, 0.9719, 0.9352, -1.0757, 0.0780, 0.0698, -0.0868, 1033, 0, 1.0000, 1.0000, -1.5000, 0.0000
13.9200, 0.0000, 0.0000, 0.0000, 0.0000, 0.0000, 0.0000, 0.9750, 0.9383, -1.0777, 0.0775, 0.0689, -0.0858, 1034, 0, 1.0000, 1.0000, -1.5000, 0.0000
13.9400, 0.0000, 0.0000, 0.0000, 0.0000, 0.0000, 0.0000, 0.9781, 0.9411, -1.0799, 0.0777, 0.0692, -0.0857, 1035, 0, 1.0000, 1.0000, -1.5000, 0.0000
13.9590, 0.0000, 0.0000, 0.0000, 0.0000, 0.0000, 0.0000, 0.9812, 0.9438, -1.0818, 0.0772, 0.0694, -0.0860, 1036, 0, 1.0000, 1.0000, -1.5000, 0.0000
13.9800, 0.0000, 0.0000, 0.0000, 0.0000, 0.0000, 0.0000, 0.9839, 0.9465, -1.0837, 0.0777, 0.0697, -0.0855, 1037, 0, 1.0000, 1.0000, -1.5000, 0.0000
14.0000, 0.0000, 0.0000, 0.0000, 0.0000, 0.0000, 0.0000, 0.9867, 0.9492, -1.0856, 0.0772, 0.0698, -0.0848, 1038, 0, 1.0000, 1.0000, -1.5000, 0.0000
14.0200, 0.0000, 0.0000, 0.0000, 0.0000, 0.0000, 0.0000, 0.9891, 0.9515, -1.0874, 0.0767, 0.0692, -0.0845, 1039, 0, 1.0000, 1.0000, -1.5000, 0.0000
14.0390, 0.0000, 0.0000, 0.0000, 0.0000, 0.0000, 0.0000, 0.9916, 0.9539, -1.0894, 0.0768, 0.0690, -0.0832, 1040, 0, 1.0000, 1.0000, -1.5000, 0.0000
14.0600, 0.0000, 0.0000, 0.0000, 0.0000, 0.0000, 0.0000, 0.9939, 0.9562, -1.0911, 0.0765, 0.0683, -0.0825, 1041, 0, 1.0000, 1.0000, -1.5000, 0.0000
14.0800, 0.0000, 0.0000, 0.0000, 0.0000, 0.0000, 0.0000, 0.9962, 0.9585, -1.0928, 0.0763, 0.0684, -0.0817, 1042, 0, 1.0000, 1.0000, -1.5000, 0.0000
14.1000, 0.0000, 0.0000, 0.0000, 0.0000, 0.0000, 0.0000, 0.9982, 0.9605, -1.0946, 0.0756, 0.0675, -0.0808, 1043, 0, 1.0000, 1.0000, -1.5000, 0.0000
14.1200, 0.0000, 0.0000, 0.0000, 0.0000, 0.0000, 0.0000, 1.0001, 0.9623, -1.0962, 0.0759, 0.0676, -0.0798, 1044, 0, 1.0000, 1.0000, -1.5000, 0.0000
14.1390, 0.0000, 0.0000, 0.0000, 0.0000, 0.0000, 0.0000, 1.0020, 0.9644, -1.0977, 0.0756, 0.0669, -0.0792, 1045, 0, 1.0000, 1.0000, -1.5000, 0.0000
14.1600, 0.0000, 0.0000, 0.0000, 0.0000, 0.0000, 0.0000, 1.0036, 0.9661, -1.0994, 0.0753, 0.0654, -0.0775, 1046, 0, 1.0000, 1.0000, -1.5000, 0.0000
14.1800, 0.0000, 0.0000, 0.0000, 0.0000, 0.0000, 0.0000, 1.0052, 0.9679, -1.1009, 0.0747, 0.0650, -0.0773, 1047, 0, 1.0000, 1.0000, -1.5000, 0.0000
14.1990, 0.0000, 0.0000, 0.0000, 0.0000, 0.0000, 0.0000, 1.0067, 0.9694, -1.1024, 0.0750, 0.0636, -0.0783, 1048, 0, 1.0000, 1.0000, -1.5000, 0.0000
14.2200, 0.0000, 0.0000, 0.0000, 0.0000, 0.0000, 0.0000, 1.0082, 0.9710, -1.1039, 0.0747, 0.0625, -0.0792, 1049, 0, 1.0000, 1.0000, -1.5000, 0.0000
14.2400, 0.0000, 0.0000, 0.0000, 0.0000, 0.0000, 0.0000, 1.0095, 0.9725, -1.1054, 0.0741, 0.0613, -0.0793, 1050, 0, 1.0000, 1.0000, -1.5000, 0.0000
14.2600, 0.0000, 0.0000, 0.0000, 0.0000, 0.0000, 0.0000, 1.0106, 0.9739, -1.1068, 0.0737, 0.0610, -0.0787, 1051, 0, 1.0000, 1.0000, -1.5000, 0.0000
14.2800, 0.0000, 0.0000, 0.0000, 0.0000, 0.0000, 0.0000, 1.0116, 0.9755, -1.1081, 0.0736, 0.0592, -0.0775, 1052, 0, 1.0000, 1.0000, -1.5000, 0.0000
14.3000, 0.0000, 0.0000, 0.0000, 0.0000, 0.0000, 0.0000, 1.0128, 0.9767, -1.1096, 0.0737, 0.0579, -0.0762, 1053, 0, 1.0000, 1.0000, -1.5000, 0.0000
14.3200, 0.0000, 0.0000, 0.0000, 0.0000, 0.0000, 0.0000, 1.0136, 0.9779, -1.1110, 0.0732, 0.0576, -0.0760, 1054, 0, 1.0000, 1.0000, -1.5000, 0.0000
14.3400, 0.0000, 0.0000, 0.0000, 0.0000, 0.0000, 0.0000, 1.0143, 0.9791, -1.1120, 0.0729, 0.0564, -0.0756, 1055, 0, 1.0000, 1.0000, -1.5000, 0.0000
14.3600, 0.0000, 0.0000, 0.0000, 0.0000, 0.0000, 0.0000, 1.0151, 0.9804, -1.1133, 0.0729, 0.0563, -0.0747, 1056, 0, 1.0000, 1.0000, -1.5000, 0.0000
14.3800, 0.0000, 0.0000, 0.0000, 0.0000, 0.0000, 0.0000, 1.0159, 0.9813, -1.1145, 0.0728, 0.0549, -0.0736, 1057, 0, 1.0000, 1.0000, -1.5000, 0.0000
14.4000, 0.0000, 0.0000, 0.0000, 0.0000, 0.0000, 0.0000, 1.0165, 0.9823, -1.1158, 0.0725, 0.0546, -0.0735, 1058, 0, 1.0000, 1.0000, -1.5000, 0.0000
14.4200, 0.0000, 0.0000, 0.0000, 0.0000, 0.0000, 0.0000, 1.0169, 0.9833, -1.1166, 0.0725, 0.0541, -0.0739, 1059, 0, 1.0000, 1.0000, -1.5000, 0.0000
14.4400, 0.0000, 0.0000, 0.0000, 0.0000, 0.0000, 0.0000, 1.0172, 0.9842, -1.1175, 0.0721, 0.0545, -0.0746, 1060, 0, 1.0000, 1.0000, -1.5000, 0.0000
14.4600, 0.0000, 0.0000, 0.0000, 0.0000, 0.0000, 0.0000, 1.0178, 0.9850, -1.1185, 0.0725, 0.0545, -0.0755, 1061, 0, 1.0000, 1.0000, -1.5000, 0.0000
14.4800, 0.0000, 0.0000, 0.0000, 0.0000, 0.0000, 0.0000, 1.0181, 0.9858, -1.1192, 0.0724, 0.0537, -0.0753, 1062, 0, 1.0000, 1.0000, -1.5000, 0.0000
14.5000, 0.0000, 0.0000, 0.0000, 0.0000, 0.0000, 0.0000, 1.0185, 0.9867, -1.1201, 0.0723, 0.0535, -0.0749, 1063, 0, 1.0000, 1.0000, -1.5000, 0.0000
14.5200, 0.0000, 0.0000, 0.0000, 0.0000, 0.0000, 0.0000, 1.0186, 0.9875, -1.1209, 0.0719, 0.0524, -0.0741, 1064, 0, 1.0000, 1.0000, -1.5000, 0.0000
14.5400, 0.0000, 0.0000, 0.0000, 0.0000, 0.0000, 0.0000, 1.0187, 0.9880, -1.1217, 0.0714, 0.0501, -0.0736, 1065, 0, 1.0000, 1.0000, -1.5000, 0.0000
14.5600, 0.0000, 0.0000, 0.0000, 0.0000, 0.0000, 0.0000, 1.0193, 0.9886, -1.1226, 0.0729, 0.0489, -0.0719, 1066, 0, 1.0000, 1.0000, -1.5000, 0.0000
14.5800, 0.0000, 0.0000, 0.0000, 0.0000, 0.0000, 0.0000, 1.0191, 0.9895, -1.1230, 0.0717, 0.0478, -0.0720, 1067, 0, 1.0000, 1.0000, -1.5000, 0.0000
14.6000, 0.0000, 0.0000, 0.0000, 0.0000, 0.0000, 0.0000, 1.0191, 0.9899, -1.1239, 0.0718, 0.0479, -0.0714, 1068, 0, 1.0000, 1.0000, -1.5000, 0.0000
14.6200, 0.0000, 0.0000, 0.0000, 0.0000, 0.0000, 0.0000, 1.0189, 0.9903, -1.1244, 0.0720, 0.0460, -0.0702, 1069, 0, 1.0000, 1.0000, -1.5000, 0.0000
14.6390, 0.0000, 0.0000, 0.0000, 0.0000, 0.0000, 0.0000, 1.0189, 0.9910, -1.1251, 0.0721, 0.0456, -0.0693, 1070, 0, 1.0000, 1.0000, -1.5000, 0.0000
14.6600, 0.0000, 0.0000, 0.0000, 0.0000, 0.0000, 0.0000, 1.0190, 0.9916, -1.1258, 0.0725, 0.0444, -0.0686, 1071, 0, 1.0000, 1.0000, -1.5000, 0.0000
14.6800, 0.0000, 0.0000, 0.0000, 0.0000, 0.0000, 0.0000, 1.0192, 0.9921, -1.1265, 0.0728, 0.0440, -0.0682, 1072, 0, 1.0000, 1.0000, -1.5000, 0.0000
14.7000, 0.0000, 0.0000, 0.0000, 0.0000, 0.0000, 0.0000, 1.0189, 0.9924, -1.1271, 0.0727, 0.0421, -0.0670, 1073, 0, 1.0000, 1.0000, -1.5000, 0.0000
14.7200, 0.0000, 0.0000, 0.0000, 0.0000, 0.0000, 0.0000, 1.0188, 0.9931, -1.1277, 0.0728, 0.0406, -0.0662, 1074, 0, 1.0000, 1.0000, -1.5000, 0.0000
14.7400, 0.0000, 0.0000, 0.0000, 0.0000, 0.0000, 0.0000, 1.0188, 0.9936, -1.1282, 0.0730, 0.0397, -0.0651, 1075, 0, 1.0000, 1.0000, -1.5000, 0.0000
14.7600, 0.0000, 0.0000, 0.0000, 0.0000, 0.0000, 0.0000, 1.0186, 0.9940, -1.1289, 0.0729, 0.0395, -0.0640, 1076, 0, 1.0000, 1.0000, -1.5000, 0.0000
14.7800, 0.0000, 0.0000, 0.0000, 0.0000, 0.0000, 0.0000, 1.0183, 0.9944, -1.1294, 0.0728, 0.0392, -0.0639, 1077, 0, 1.0000, 1.0000, -1.5000, 0.0000
14.8000, 0.0000, 0.0000, 0.0000, 0.0000, 0.0000, 0.0000, 1.0182, 0.9951, -1.1299, 0.0727, 0.0384, -0.0637, 1078, 0, 1.0000, 1.0000, -1.5000, 0.0000
14.8200, 0.0000, 0.0000, 0.0000, 0.0000, 0.0000, 0.0000, 1.0182, 0.9954, -1.1304, 0.0725, 0.0375, -0.0638, 1079, 0, 1.0000, 1.0000, -1.5000, 0.0000
14.8400, 0.0000, 0.0000, 0.0000, 0.0000, 0.0000, 0.0000, 1.0181, 0.9959, -1.1308, 0.0723, 0.0360, -0.0644, 1080, 0, 1.0000, 1.0000, -1.5000, 0.0000
14.8600, 0.0000, 0.0000, 0.0000, 0.0000, 0.0000, 0.0000, 1.0179, 0.9964, -1.1313, 0.0724, 0.0356, -0.0647, 1081, 0, 1.0000, 1.0000, -1.5000, 0.0000
14.8800, 0.0000, 0.0000, 0.0000, 0.0000, 0.0000, 0.0000, 1.0178, 0.9969, -1.1317, 0.0724, 0.0344, -0.0643, 1082, 0, 1.0000, 1.0000, -1.5000, 0.0000
14.9000, 0.0000, 0.0000, 0.0000, 0.0000, 0.0000, 0.0000, 1.0177, 0.9974, -1.1322, 0.0722, 0.0346, -0.0648, 1083, 0, 1.0000, 1.0000, -1.5000, 0.0000
14.9200, 0.0000, 0.0000, 0.0000, 0.0000, 0.0000, 0.0000, 1.0177, 0.9978, -1.1326, 0.0725, 0.0336, -0.0645, 1084, 0, 1.0000, 1.0000, -1.5000, 0.0000
14.9400, 0.0000, 0.0000, 0.0000, 0.0000, 0.0000, 0.0000, 1.0174, 0.9985, -1.1329, 0.0724, 0.0334, -0.0635, 1085, 0, 1.0000, 1.0000, -1.5000, 0.0000
14.9590, 0.0000, 0.0000, 0.0000, 0.0000, 0.0000, 0.0000, 1.0174, 0.9990, -1.1334, 0.0724, 0.0326, -0.0625, 1086, 0, 1.0000, 1.0000, -1.5000, 0.0000
14.9800, 0.0000, 0.0000, 0.0000, 0.0000, 0.0000, 0.0000, 1.0173, 0.9995, -1.1340, 0.0728, 0.0335, -0.0619, 1087, 0, 1.0000, 1.0000, -1.5000, 0.0000
15.0000, 0.0000, 0.0000, 0.0000, 0.0000, 0.0000, 0.0000, 1.0172, 1.0001, -1.1342, 0.0722, 0.0325, -0.0620, 1088, 0, 1.0000, 1.0000, -1.5000, 0.0000
15.0200, 0.0000, 0.0000, 0.0000, 0.0000, 0.0000, 0.0000, 1.0171, 1.0007, -1.1346, 0.0724, 0.0316, -0.0614, 1089, 0, 1.0000, 1.0000, -1.5000, 0.0000
15.0400, 0.0000, 0.0000, 0.0000, 0.0000, 0.0000, 0.0000, 1.0171, 1.0011, -1.1351, 0.0722, 0.0317, -0.0620, 1090, 0, 0.9933, 0.9933, -1.4967, 0.0000
15.0600, 0.0000, 0.0000, 0.0000, 0.0000, 0.0000, 0.0000, 1.0171, 1.0016, -1.1355, 0.0722, 0.0309, -0.0620, 1091, 0, 0.9867, 0.9867, -1.4933, 0.0000
15.0800, 0.0000, 0.0000, 0.0000, 0.0000, 0.0000, 0.0000, 1.0172, 1.0023, -1.1360, 0.0723, 0.0313, -0.0622, 1092, 0, 0.9800, 0.9800, -1.4900, 0.0000
15.1000, 0.0000, 0.0000, 0.0000, 0.0000, 0.0000, 0.0000, 1.0172, 1.0029, -1.1363, 0.0722, 0.0305, -0.0625, 1093, 0, 0.9733, 0.9733, -1.4867, 0.0000
15.1200, 0.0000, 0.0000, 0.0000, 0.0000, 0.0000, 0.0000, 1.0173, 1.0034, -1.1369, 0.0725, 0.0308, -0.0626, 1094, 0, 0.9667, 0.9667, -1.4833, 0.0000
15.1400, 0.0000, 0.0000, 0.0000, 0.0000, 0.0000, 0.0000, 1.0174, 1.0040, -1.1373, 0.0724, 0.0309, -0.0637, 1095, 0, 0.9600, 0.9600, -1.4800, 0.0000
15.1600, 0.0000, 0.0000, 0.0000, 0.0000, 0.0000, 0.0000, 1.0175, 1.0047, -1.1376, 0.0726, 0.0317, -0.0649, 1096, 0, 0.9533, 0.9533, -1.4767, 0.0000
15.1800, 0.0000, 0.0000, 0.0000, 0.0000, 0.0000, 0.0000, 1.0177, 1.0053, -1.1380, 0.0728, 0.0329, -0.0660, 1097, 0, 0.9467, 0.9467, -1.4733, 0.0000
15.2000, 0.0000, 0.0000, 0.0000, 0.0000, 0.0000, 0.0000, 1.0177, 1.0058, -1.1383, 0.0732, 0.0335, -0.0673, 1098, 0, 0.9400, 0.9400, -1.4700, 0.0000
15.2200, 0.0000, 0.0000, 0.0000, 0.0000, 0.0000, 0.0000, 1.0179, 1.0063, -1.1386, 0.0731, 0.0346, -0.0686, 1099, 0, 0.9333, 0.9333, -1.4667, 0.0000
15.2400, 0.0000, 0.0000, 0.0000, 0.0000, 0.0000, 0.0000, 1.0181, 1.0070, -1.1387, 0.0735, 0.0354, -0.0704, 1100, 0, 0.9267, 0.9267, -1.4633, 0.0000
15.2600, 0.0000, 0.0000, 0.0000, 0.0000, 0.0000, 0.0000, 1.0188, 1.0073, -1.1391, 0.0753, 0.0365, -0.0721, 1101, 0, 0.9200, 0.9200, -1.4600, 0.0000
15.2800, 0.0000, 0.0000, 0.0000, 0.0000, 0.0000, 0.0000, 1.0183, 1.0079, -1.1390, 0.0743, 0.0389, -0.0759, 1102, 0, 0.9133, 0.9133, -1.4567, 0.0000
15.3000, 0.0000, 0.0000, 0.0000, 0.0000, 0.0000, 0.0000, 1.0184, 1.0083, -1.1390, 0.0744, 0.0415, -0.0783, 1103, 0, 0.9067, 0.9067, -1.4533, 0.0000
15.3200, 0.0000, 0.0000, 0.0000, 0.0000, 0.0000, 0.0000, 1.0192, 1.0086, -1.1393, 0.0763, 0.0433, -0.0796, 1104, 0, 0.9000, 0.9000, -1.4500, 0.0000
15.3400, 0.0000, 0.0000, 0.0000, 0.0000, 0.0000, 0.0000, 1.0188, 1.0090, -1.1391, 0.0753, 0.0466, -0.0825, 1105, 0, 0.8933, 0.8933, -1.4467, 0.0000
15.3600, 0.0000, 0.0000, 0.0000, 0.0000, 0.0000, 0.0000, 1.0187, 1.0092, -1.1389, 0.0757, 0.0492, -0.0846, 1106, 0, 0.8867, 0.8867, -1.4433, 0.0000
15.3800, 0.0000, 0.0000, 0.0000, 0.0000, 0.0000, 0.0000, 1.0188, 1.0096, -1.1388, 0.0761, 0.0507, -0.0865, 1107, 0, 0.8800, 0.8800, -1.4400, 0.0000
15.4000, 0.0000, 0.0000, 0.0000, 0.0000, 0.0000, 0.0000, 1.0189, 1.0096, -1.1387, 0.0764, 0.0527, -0.0892, 1108, 0, 0.8733, 0.8733, -1.4367, 0.0000
15.4200, 0.0000, 0.0000, 0.0000, 0.0000, 0.0000, 0.0000, 1.0189, 1.0097, -1.1384, 0.0770, 0.0551, -0.0922, 1109, 0, 0.8667, 0.8667, -1.4333, 0.0000
15.4400, 0.0000, 0.0000, 0.0000, 0.0000, 0.0000, 0.0000, 1.0187, 1.0094, -1.1381, 0.0776, 0.0584, -0.0945, 1110, 0, 0.8600, 0.8600, -1.4300, 0.0000
15.4600, 0.0000, 0.0000, 0.0000, 0.0000, 0.0000, 0.0000, 1.0184, 1.0094, -1.1376, 0.0782, 0.0607, -0.0973, 1111, 0, 0.8533, 0.8533, -1.4267, 0.0000
15.4800, 0.0000, 0.0000, 0.0000, 0.0000, 0.0000, 0.0000, 1.0182, 1.0091, -1.1373, 0.0787, 0.0644, -0.1007, 1112, 0, 0.8467, 0.8467, -1.4233, 0.0000
15.5000, 0.0000, 0.0000, 0.0000, 0.0000, 0.0000, 0.0000, 1.0178, 1.0085, -1.1367, 0.0790, 0.0676, -0.1033, 1113, 0, 0.8400, 0.8400, -1.4200, 0.0000
15.5200, 0.0000, 0.0000, 0.0000, 0.0000, 0.0000, 0.0000, 1.0173, 1.0081, -1.1359, 0.0799, 0.0695, -0.1057, 1114, 0, 0.8333, 0.8333, -1.4167, 0.0000
15.5400, 0.0000, 0.0000, 0.0000, 0.0000, 0.0000, 0.0000, 1.0167, 1.0073, -1.1354, 0.0806, 0.0725, -0.1078, 1115, 0, 0.8267, 0.8267, -1.4133, 0.0000
15.5600, 0.0000, 0.0000, 0.0000, 0.0000, 0.0000, 0.0000, 1.0160, 1.0063, -1.1346, 0.0810, 0.0737, -0.1099, 1116, 0, 0.8200, 0.8200, -1.4100, 0.0000
15.5800, 0.0000, 0.0000, 0.0000, 0.0000, 0.0000, 0.0000, 1.0152, 1.0052, -1.1338, 0.0815, 0.0768, -0.1119, 1117, 0, 0.8133, 0.8133, -1.4067, 0.0000
15.6000, 0.0000, 0.0000, 0.0000, 0.0000, 0.0000, 0.0000, 1.0143, 1.0041, -1.1329, 0.0823, 0.0794, -0.1133, 1118, 0, 0.8067, 0.8067, -1.4033, 0.0000
15.6200, 0.0000, 0.0000, 0.0000, 0.0000, 0.0000, 0.0000, 1.0133, 1.0028, -1.1320, 0.0825, 0.0815, -0.1146, 1119, 0, 0.8000, 0.8000, -1.4000, 0.0000
15.6400, 0.0000, 0.0000, 0.0000, 0.0000, 0.0000, 0.0000, 1.0120, 1.0011, -1.1312, 0.0832, 0.0830, -0.1154, 1120, 0, 0.7933, 0.7933, -1.3967, 0.0000
15.6600, 0.0000, 0.0000, 0.0000, 0.0000, 0.0000, 0.0000, 1.0107, 0.9994, -1.1301, 0.0834, 0.0838, -0.1169, 1121, 0, 0.7867, 0.7867, -1.3933, 0.0000
15.6800, 0.0000, 0.0000, 0.0000, 0.0000, 0.0000, 0.0000, 1.0093, 0.9973, -1.1290, 0.0836, 0.0851, -0.1179, 1122, 0, 0.7800, 0.7800, -1.3900, 0.0000
15.7000, 0.0000, 0.0000, 0.0000, 0.0000, 0.0000, 0.0000, 1.0077, 0.9951, -1.1280, 0.0838, 0.0856, -0.1191, 1123, 0, 0.7733, 0.7733, -1.3867, 0.0000
15.7200, 0.0000, 0.0000, 0.0000, 0.0000, 0.0000, 0.0000, 1.0058, 0.9926, -1.1270, 0.0843, 0.0874, -0.1198, 1124, 0, 0.7667, 0.7667, -1.3833, 0.0000
15.7400, 0.0000, 0.0000, 0.0000, 0.0000, 0.0000, 0.0000, 1.0039, 0.9901, -1.1258, 0.0844, 0.0878, -0.1199, 1125, 0, 0.7600, 0.7600, -1.3800, 0.0000
15.7600, 0.0000, 0.0000, 0.0000, 0.0000, 0.0000, 0.0000, 1.0017, 0.9875, -1.1247, 0.0845, 0.0891, -0.1196, 1126, 0, 0.7533, 0.7533, -1.3767, 0.0000
15.7800, 0.0000, 0.0000, 0.0000, 0.0000, 0.0000, 0.0000, 0.9996, 0.9846, -1.1237, 0.0847, 0.0893, -0.1186, 1127, 0, 0.7467, 0.7467, -1.3733, 0.0000
15.8000, 0.0000, 0.0000, 0.0000, 0.0000, 0.0000, 0.0000, 0.9970, 0.9813, -1.1226, 0.0848, 0.0894, -0.1176, 1128, 0, 0.7400, 0.7400, -1.3700, 0.0000
15.8200, 0.0000, 0.0000, 0.0000, 0.0000, 0.0000, 0.0000, 0.9945, 0.9783, -1.1213, 0.0848, 0.0899, -0.1166, 1129, 0, 0.7333, 0.7333, -1.3667, 0.0000
15.8400, 0.0000, 0.0000, 0.0000, 0.0000, 0.0000, 0.0000, 0.9917, 0.9748, -1.1202, 0.0850, 0.0906, -0.1160, 1130, 0, 0.7267, 0.7267, -1.3633, 0.0000
15.8600, 0.0000, 0.0000, 0.0000, 0.0000, 0.0000, 0.0000, 0.9889, 0.9712, -1.1190, 0.0857, 0.0911, -0.1163, 1131, 0, 0.7200, 0.7200, -1.3600, 0.0000
15.8800, 0.0000, 0.0000, 0.0000, 0.0000, 0.0000, 0.0000, 0.9858, 0.9672, -1.1178, 0.0857, 0.0898, -0.1148, 1132, 0, 0.7133, 0.7133, -1.3567, 0.0000
15.9000, 0.0000, 0.0000, 0.0000, 0.0000, 0.0000, 0.0000, 0.9826, 0.9636, -1.1168, 0.0851, 0.0873, -0.1116, 1133, 0, 0.7067, 0.7067, -1.3533, 0.0000
15.9200, 0.0000, 0.0000, 0.0000, 0.0000, 0.0000, 0.0000, 0.9792, 0.9597, -1.1156, 0.0852, 0.0870, -0.1089, 1134, 0, 0.7000, 0.7000, -1.3500, 0.0000
15.9400, 0.0000, 0.0000, 0.0000, 0.0000, 0.0000, 0.0000, 0.9755, 0.9553, -1.1143, 0.0851, 0.0876, -0.1075, 1135, 0, 0.6933, 0.6933, -1.3467, 0.0000
15.9600, 0.0000, 0.0000, 0.0000, 0.0000, 0.0000, 0.0000, 0.9718, 0.9511, -1.1129, 0.0854, 0.0880, -0.1069, 1136, 0, 0.6867, 0.6867, -1.3433, 0.0000
15.9800, 0.0000, 0.0000, 0.0000, 0.0000, 0.0000, 0.0000, 0.9679, 0.9466, -1.1115, 0.0857, 0.0882, -0.1056, 1137, 0, 0.6800, 0.6800, -1.3400, 0.0000
16.0000, 0.0000, 0.0000, 0.0000, 0.0000, 0.0000, 0.0000, 0.9638, 0.9420, -1.1099, 0.0857, 0.0881, -0.1058, 1138, 0, 0.6733, 0.6733, -1.3367, 0.0000
16.0200, 0.0000, 0.0000, 0.0000, 0.0000, 0.0000, 0.0000, 0.9597, 0.9371, -1.1082, 0.0859, 0.0887, -0.1059, 1139, 0, 0.6667, 0.6667, -1.3333, 0.0000
16.0400, 0.0000, 0.0000, 0.0000, 0.0000, 0.0000, 0.0000, 0.9551, 0.9326, -1.1063, 0.0858, 0.0881, -0.1053, 1140, 0, 0.6600, 0.6600, -1.3300, 0.0000
16.0600, 0.0000, 0.0000, 0.0000, 0.0000, 0.0000, 0.0000, 0.9510, 0.9277, -1.1047, 0.0860, 0.0879, -0.1047, 1141, 0, 0.6533, 0.6533, -1.3267, 0.0000
16.0800, 0.0000, 0.0000, 0.0000, 0.0000, 0.0000, 0.0000, 0.9463, 0.9225, -1.1029, 0.0857, 0.0873, -0.1032, 1142, 0, 0.6467, 0.6467, -1.3233, 0.0000
16.1000, 0.0000, 0.0000, 0.0000, 0.0000, 0.0000, 0.0000, 0.9415, 0.9175, -1.1010, 0.0855, 0.0855, -0.1030, 1143, 0, 0.6400, 0.6400, -1.3200, 0.0000
16.1200, 0.0000, 0.0000, 0.0000, 0.0000, 0.0000, 0.0000, 0.9366, 0.9123, -1.0989, 0.0856, 0.0850, -0.1026, 1144, 0, 0.6333, 0.6333, -1.3167, 0.0000
16.1400, 0.0000, 0.0000, 0.0000, 0.0000, 0.0000, 0.0000, 0.9317, 0.9071, -1.0969, 0.0857, 0.0832, -0.1018, 1145, 0, 0.6267, 0.6267, -1.3133, 0.0000
16.1600, 0.0000, 0.0000, 0.0000, 0.0000, 0.0000, 0.0000, 0.9266, 0.9018, -1.0949, 0.0853, 0.0828, -0.1008, 1146, 0, 0.6200, 0.6200, -1.3100, 0.0000
16.1800, 0.0000, 0.0000, 0.0000, 0.0000, 0.0000, 0.0000, 0.9213, 0.8963, -1.0926, 0.0855, 0.0822, -0.1001, 1147, 0, 0.6133, 0.6133, -1.3067, 0.0000
16.2000, 0.0000, 0.0000, 0.0000, 0.0000, 0.0000, 0.0000, 0.9159, 0.8910, -1.0904, 0.0850, 0.0815, -0.0995, 1148, 0, 0.6067, 0.6067, -1.3033, 0.0000
16.2200, 0.0000, 0.0000, 0.0000, 0.0000, 0.0000, 0.0000, 0.9104, 0.8852, -1.0882, 0.0852, 0.0799, -0.0988, 1149, 0, 0.6000, 0.6000, -1.3000, 0.0000
16.2400, 0.0000, 0.0000, 0.0000, 0.0000, 0.0000, 0.0000, 0.9048, 0.8795, -1.0858, 0.0853, 0.0795, -0.0982, 1150, 0, 0.5933, 0.5933, -1.2967, 0.0000
16.2600, 0.0000, 0.0000, 0.0000, 0.0000, 0.0000, 0.0000, 0.8990, 0.8738, -1.0832, 0.0849, 0.0765, -0.0976, 1151, 0, 0.5867, 0.5867, -1.2933, 0.0000
16.2800, 0.0000, 0.0000, 0.0000, 0.0000, 0.0000, 0.0000, 0.8932, 0.8679, -1.0808, 0.0850, 0.0765, -0.0966, 1152, 0, 0.5800, 0.5800, -1.2900, 0.0000
16.3000, 0.0000, 0.0000, 0.0000, 0.0000, 0.0000, 0.0000, 0.8873, 0.8621, -1.0781, 0.0852, 0.0734, -0.0956, 1153, 0, 0.5733, 0.5733, -1.2867, 0.0000
16.3200, 0.0000, 0.0000, 0.0000, 0.0000, 0.0000, 0.0000, 0.8812, 0.8560, -1.0756, 0.0854, 0.0724, -0.0946, 1154, 0, 0.5667, 0.5667, -1.2833, 0.0000
