time (s), accel_x (m/s^2), accel_y (m/s^2), accel_z (m/s^2), gyro_x (rad/s), gyro_y (rad/s), gyro_z (rad/s), x (m), y (m), z (m), yaw (rad), pitch (rad), roll (rad), mocap_counter, counter, desired x, desired y, desired z, desired yaw
0.0000, -0.3825, -0.5001, -9.6792, 0.0019, -0.0067, -0.0113, 0.0062, -0.0856, -0.0859, 0.0206, 0.0065, -0.0225, 1309, 101040, 0.5000, 0.5000, -0.5000, 0.0000
0.0200, -0.3825, -0.5001, -9.6792, 0.0019, -0.0067, -0.0113, 0.0061, -0.0854, -0.0861, 0.0204, 0.0058, -0.0213, 1310, 101040, 0.5000, 0.5000, -0.5000, 0.0000
0.0400, -0.3825, -0.5001, -9.6792, 0.0019, -0.0067, -0.0113, 0.0063, -0.0855, -0.0860, 0.0209, 0.0058, -0.0217, 1311, 101040, 0.5000, 0.5000, -0.5000, 0.0000
0.0610, -0.3825, -0.5001, -9.6792, 0.0019, -0.0067, -0.0113, 0.0061, -0.0855, -0.0862, 0.0204, 0.0057, -0.0211, 1312, 101040, 0.5000, 0.5000, -0.5000, 0.0000
0.0810, -0.3825, -0.5001, -9.6792, 0.0019, -0.0067, -0.0113, 0.0061, -0.0855, -0.0860, 0.0206, 0.0061, -0.0209, 1313, 101040, 0.5000, 0.5000, -0.5000, 0.0000
0.1000, -0.3825, -0.5001, -9.6792, 0.0019, -0.0067, -0.0113, 0.0062, -0.0854, -0.0860, 0.0206, 0.0062, -0.0220, 1314, 101040, 0.5000, 0.5000, -0.5000, 0.0000
0.1200, -0.3825, -0.5001, -9.6792, 0.0019, -0.0067, -0.0113, 0.0062, -0.0855, -0.0860, 0.0207, 0.0062, -0.0215, 1315, 101040, 0.5000, 0.5000, -0.5000, 0.0000
0.1410, -0.3825, -0.5001, -9.6792, 0.0019, -0.0067, -0.0113, 0.0061, -0.0855, -0.0861, 0.0205, 0.0055, -0.0220, 1316, 101040, 0.5000, 0.5000, -0.5000, 0.0000
0.1600, -0.3825, -0.5001, -9.6792, 0.0019, -0.0067, -0.0113, 0.0062, -0.0855, -0.0859, 0.0204, 0.0060, -0.0220, 1317, 101040, 0.5000, 0.5000, -0.5000, 0.0000
0.1800, -0.3825, -0.5001, -9.6792, 0.0019, -0.0067, -0.0113, 0.0062, -0.0856, -0.0861, 0.0207, 0.0061, -0.0231, 1318, 101040, 0.5000, 0.5000, -0.5000, 0.0000
0.2000, -0.3825, -0.5001, -9.6792, 0.0019, -0.0067, -0.0113, 0.0062, -0.0857, -0.0859, 0.0206, 0.0063, -0.0237, 1319, 101040, 0.5000, 0.5000, -0.5000, 0.0000
0.2210, -0.3825, -0.5001, -9.6792, 0.0019, -0.0067, -0.0113, 0.0062, -0.0857, -0.0862, 0.0205, 0.0055, -0.0237, 1320, 101040, 0.5000, 0.5000, -0.5000, 0.0000
0.2410, -0.3825, -0.5001, -9.6792, 0.0019, -0.0067, -0.0113, 0.0062, -0.0857, -0.0858, 0.0206, 0.0054, -0.0252, 1321, 101040, 0.5000, 0.5000, -0.5000, 0.0000
0.2610, -0.3825, -0.5001, -9.6792, 0.0019, -0.0067, -0.0113, 0.0063, -0.0858, -0.0860, 0.0204, 0.0057, -0.0260, 1322, 101040, 0.5000, 0.5000, -0.5000, 0.0000
0.2810, -0.3825, -0.5001, -9.6792, 0.0019, -0.0067, -0.0113, 0.0062, -0.0859, -0.0859, 0.0206, 0.0058, -0.0260, 1323, 101040, 0.5000, 0.5000, -0.5000, 0.0000
0.3000, -0.3825, -0.5001, -9.6792, 0.0019, -0.0067, -0.0113, 0.0063, -0.0857, -0.0859, 0.0205, 0.0055, -0.0253, 1324, 101040, 0.5000, 0.5000, -0.5000, 0.0000
0.3210, -0.3825, -0.5001, -9.6792, 0.0019, -0.0067, -0.0113, 0.0062, -0.0857, -0.0858, 0.0204, 0.0056, -0.0244, 1325, 101040, 0.5000, 0.5000, -0.5000, 0.0000
0.3410, -0.3825, -0.5001, -9.6792, 0.0019, -0.0067, -0.0113, 0.0062, -0.0857, -0.0860, 0.0208, 0.0062, -0.0239, 1326, 101040, 0.5000, 0.5000, -0.5000, 0.0000
0.3610, -0.3825, -0.5001, -9.6792, 0.0019, -0.0067, -0.0113, 0.0062, -0.0857, -0.0859, 0.0206, 0.0059, -0.0232, 1327, 101040, 0.5000, 0.5000, -0.5000, 0.0000
0.3810, -0.3825, -0.5001, -9.6792, 0.0019, -0.0067, -0.0113, 0.0062, -0.0855, -0.0860, 0.0209, 0.0058, -0.0227, 1328, 101040, 0.5000, 0.5000, -0.5000, 0.0000
0.4000, -0.3825, -0.5001, -9.6792, 0.0019, -0.0067, -0.0113, 0.0062, -0.0855, -0.0860, 0.0208, 0.0056, -0.0225, 1329, 101040, 0.5000, 0.5000, -0.5000, 0.0000
0.4210, -0.3825, -0.5001, -9.6792, 0.0019, -0.0067, -0.0113, 0.0063, -0.0857, -0.0861, 0.0208, 0.0060, -0.0228, 1330, 101040, 0.5000, 0.5000, -0.5000, 0.0000
0.4410, -0.3825, -0.5001, -9.6792, 0.0019, -0.0067, -0.0113, 0.0061, -0.0855, -0.0860, 0.0206, 0.0055, -0.0221, 1331, 101040, 0.5000, 0.5000, -0.5000, 0.0000
0.4610, -0.3825, -0.5001, -9.6792, 0.0019, -0.0067, -0.0113, 0.0063, -0.0856, -0.0860, 0.0208, 0.0061, -0.0227, 1332, 101040, 0.5000, 0.5000, -0.5000, 0.0000
0.4810, -0.3825, -0.5001, -9.6792, 0.0019, -0.0067, -0.0113, 0.0062, -0.0855, -0.0860, 0.0206, 0.0059, -0.0224, 1333, 101040, 0.5000, 0.5000, -0.5000, 0.0000
0.5000, -0.3825, -0.5001, -9.6792, 0.0019, -0.0067, -0.0113, 0.0064, -0.0856, -0.0861, 0.0210, 0.0062, -0.0227, 1334, 101040, 0.5000, 0.5000, -0.5000, 0.0000
0.5210, -0.3825, -0.5001, -9.6792, 0.0019, -0.0067, -0.0113, 0.0061, -0.0856, -0.0861, 0.0205, 0.0056, -0.0221, 1335, 101040, 0.5000, 0.5000, -0.5000, 0.0000
0.5410, -0.3825, -0.5001, -9.6792, 0.0019, -0.0067, -0.0113, 0.0062, -0.0855, -0.0861, 0.0205, 0.0061, -0.0225, 1336, 101040, 0.5000, 0.5000, -0.5000, 0.0000
0.5610, -0.3825, -0.5001, -9.6792, 0.0019, -0.0067, -0.0113, 0.0062, -0.0856, -0.0860, 0.0207, 0.0061, -0.0238, 1337, 101040, 0.5000, 0.5000, -0.5000, 0.0000
0.5810, -0.3825, -0.5001, -9.6792, 0.0019, -0.0067, -0.0113, 0.0061, -0.0856, -0.0861, 0.0205, 0.0059, -0.0231, 1338, 101040, 0.5000, 0.5000, -0.5000, 0.0000
0.6000, -0.3825, -0.5001, -9.6792, 0.0019, -0.0067, -0.0113, 0.0063, -0.0857, -0.0859, 0.0208, 0.0059, -0.0246, 1339, 101040, 0.5000, 0.5000, -0.5000, 0.0000
0.6210, -0.3825, -0.5001, -9.6792, 0.0019, -0.0067, -0.0113, 0.0062, -0.0857, -0.0859, 0.0205, 0.0058, -0.0253, 1340, 101040, 0.5000, 0.5000, -0.5000, 0.0000
0.6410, -0.3825, -0.5001, -9.6792, 0.0019, -0.0067, -0.0113, 0.0063, -0.0858, -0.0860, 0.0208, 0.0059, -0.0255, 1341, 101040, 0.5000, 0.5000, -0.5000, 0.0000
0.6610, -0.3825, -0.5001, -9.6792, 0.0019, -0.0067, -0.0113, 0.0062, -0.0859, -0.0860, 0.0207, 0.0057, -0.0252, 1342, 101040, 0.5000, 0.5000, -0.5000, 0.0000
0.6810, -0.3825, -0.5001, -9.6792, 0.0019, -0.0067, -0.0113, 0.0063, -0.0858, -0.0860, 0.0207, 0.0056, -0.0259, 1343, 101040, 0.5000, 0.5000, -0.5000, 0.0000
0.7000, -0.3825, -0.5001, -9.6792, 0.0019, -0.0067, -0.0113, 0.0063, -0.0857, -0.0862, 0.0204, 0.0060, -0.0256, 1344, 101040, 0.5000, 0.5000, -0.5000, 0.0000
0.7210, -0.3825, -0.5001, -9.6792, 0.0019, -0.0067, -0.0113, 0.0063, -0.0859, -0.0864, 0.0204, 0.0066, -0.0265, 1345, 101040, 0.5000, 0.5000, -0.5000, 0.0000
0.7410, -0.3825, -0.5001, -9.6792, 0.0019, -0.0067, -0.0113, 0.0062, -0.0857, -0.0867, 0.0193, 0.0059, -0.0249, 1346, 101040, 0.5000, 0.5000, -0.5000, 0.0000
0.7610, -0.3825, -0.5001, -9.6792, 0.0019, -0.0067, -0.0113, 0.0066, -0.0853, -0.0869, 0.0187, 0.0025, -0.0220, 1347, 101040, 0.5000, 0.5000, -0.5000, 0.0000
0.7810, -0.3825, -0.5001, -9.6792, 0.0019, -0.0067, -0.0113, 0.0075, -0.0845, -0.0879, 0.0168, -0.0081, -0.0121, 1348, 101040, 0.5000, 0.5000, -0.5000, 0.0000
0.8000, -0.3825, -0.5001, -9.6792, 0.0019, -0.0067, -0.0113, 0.0089, -0.0828, -0.0893, 0.0169, -0.0289, 0.0073, 1349, 101040, 0.5000, 0.5000, -0.5000, 0.0000
0.8210, -0.3825, -0.5001, -9.6792, 0.0019, -0.0067, -0.0113, 0.0110, -0.0805, -0.0923, 0.0172, -0.0427, 0.0306, 1350, 101040, 0.5000, 0.5000, -0.5000, 0.0000
0.8410, -0.3825, -0.5001, -9.6792, 0.0019, -0.0067, -0.0113, 0.0123, -0.0778, -0.0953, 0.0171, -0.0400, 0.0475, 1351, 101040, 0.5000, 0.5000, -0.5000, 0.0000
0.8610, -0.3825, -0.5001, -9.6792, 0.0019, -0.0067, -0.0113, 0.0139, -0.0749, -0.0999, 0.0178, -0.0329, 0.0572, 1352, 101040, 0.5000, 0.5000, -0.5000, 0.0000
0.8810, -0.3825, -0.5001, -9.6792, 0.0019, -0.0067, -0.0113, 0.0161, -0.0712, -0.1058, 0.0180, -0.0330, 0.0716, 1353, 101040, 0.5000, 0.5000, -0.5000, 0.0000
0.9000, -0.3825, -0.5001, -9.6792, 0.0019, -0.0067, -0.0113, 0.0193, -0.0662, -0.1119, 0.0194, -0.0441, 0.0884, 1354, 101040, 0.5000, 0.5000, -0.5000, 0.0000
0.9210, -0.3825, -0.5001, -9.6792, 0.0019, -0.0067, -0.0113, 0.0232, -0.0608, -0.1194, 0.0190, -0.0597, 0.1049, 1355, 101040, 0.5000, 0.5000, -0.5000, 0.0000
0.9410, -0.3825, -0.5001, -9.6792, 0.0019, -0.0067, -0.0113, 0.0278, -0.0547, -0.1270, 0.0186, -0.0797, 0.1175, 1356, 101040, 0.5000, 0.5000, -0.5000, 0.0000
0.9610, -0.3825, -0.5001, -9.6792, 0.0019, -0.0067, -0.0113, 0.0324, -0.0481, -0.1348, 0.0181, -0.0920, 0.1225, 1357, 101040, 0.5000, 0.5000, -0.5000, 0.0000
0.9810, -0.3825, -0.5001, -9.6792, 0.0019, -0.0067, -0.0113, 0.0377, -0.0408, -0.1426, 0.0182, -0.1021, 0.1266, 1358, 101040, 0.5000, 0.5000, -0.5000, 0.0000
1.0000, -0.3825, -0.5001, -9.6792, 0.0019, -0.0067, -0.0113, 0.0430, -0.0330, -0.1502, 0.0172, -0.1071, 0.1261, 1359, 101040, 0.5000, 0.5000, -0.5000, 0.0000
1.0210, -0.3825, -0.5001, -9.6792, 0.0019, -0.0067, -0.0113, 0.0488, -0.0247, -0.1574, 0.0163, -0.1100, 0.1226, 1360, 101040, 0.5000, 0.5000, -0.5000, 0.0000
1.0410, -0.3825, -0.5001, -9.6792, 0.0019, -0.0067, -0.0113, 0.0549, -0.0156, -0.1639, 0.0158, -0.1104, 0.1176, 1361, 101040, 0.5000, 0.5000, -0.5000, 0.0000
1.0610, -0.3825, -0.5001, -9.6792, 0.0019, -0.0067, -0.0113, 0.0616, -0.0063, -0.1706, 0.0148, -0.1085, 0.1112, 1362, 101040, 0.5000, 0.5000, -0.5000, 0.0000
1.0810, -0.3825, -0.5001, -9.6792, 0.0019, -0.0067, -0.0113, 0.0688, 0.0036, -0.1766, 0.0136, -0.1059, 0.1017, 1363, 101040, 0.5000, 0.5000, -0.5000, 0.0000
1.1000, -0.3825, -0.5001, -9.6792, 0.0019, -0.0067, -0.0113, 0.0763, 0.0141, -0.1821, 0.0134, -0.1037, 0.0937, 1364, 101040, 0.5000, 0.5000, -0.5000, 0.0000
1.1200, -0.3825, -0.5001, -9.6792, 0.0019, -0.0067, -0.0113, 0.0844, 0.0254, -0.1874, 0.0129, -0.1001, 0.0854, 1365, 101040, 0.5000, 0.5000, -0.5000, 0.0000
1.1410, -0.3825, -0.5001, -9.6792, 0.0019, -0.0067, -0.0113, 0.0931, 0.0371, -0.1925, 0.0130, -0.0960, 0.0776, 1366, 101040, 0.5000, 0.5000, -0.5000, 0.0000
1.1610, -0.3825, -0.5001, -9.6792, 0.0019, -0.0067, -0.0113, 0.1022, 0.0492, -0.1974, 0.0130, -0.0921, 0.0712, 1367, 101040, 0.5000, 0.5000, -0.5000, 0.0000
1.1810, -0.3825, -0.5001, -9.6792, 0.0019, -0.0067, -0.0113, 0.1118, 0.0620, -0.2018, 0.0133, -0.0888, 0.0638, 1368, 101040, 0.5000, 0.5000, -0.5000, 0.0000
1.2000, -0.3825, -0.5001, -9.6792, 0.0019, -0.0067, -0.0113, 0.1218, 0.0749, -0.2059, 0.0142, -0.0825, 0.0534, 1369, 101040, 0.5000, 0.5000, -0.5000, 0.0000
1.2210, -0.3825, -0.5001, -9.6792, 0.0019, -0.0067, -0.0113, 0.1321, 0.0881, -0.2100, 0.0140, -0.0703, 0.0361, 1370, 101040, 0.5000, 0.5000, -0.5000, 0.0000
1.2410, -0.3825, -0.5001, -9.6792, 0.0019, -0.0067, -0.0113, 0.1426, 0.1012, -0.2138, 0.0149, -0.0594, 0.0204, 1371, 101040, 0.5000, 0.5000, -0.5000, 0.0000
1.2610, -0.3825, -0.5001, -9.6792, 0.0019, -0.0067, -0.0113, 0.1537, 0.1152, -0.2174, 0.0148, -0.0496, 0.0066, 1372, 101040, 0.5000, 0.5000, -0.5000, 0.0000
1.2810, -0.3825, -0.5001, -9.6792, 0.0019, -0.0067, -0.0113, 0.1651, 0.1293, -0.2213, 0.0155, -0.0404, -0.0055, 1373, 101040, 0.5000, 0.5000, -0.5000, 0.0000
1.3000, -0.3825, -0.5001, -9.6792, 0.0019, -0.0067, -0.0113, 0.1766, 0.1435, -0.2249, 0.0168, -0.0316, -0.0165, 1374, 101040, 0.5000, 0.5000, -0.5000, 0.0000
1.3210, -0.3825, -0.5001, -9.6792, 0.0019, -0.0067, -0.0113, 0.1886, 0.1578, -0.2284, 0.0180, -0.0230, -0.0281, 1375, 101040, 0.5000, 0.5000, -0.5000, 0.0000
1.3410, -0.3825, -0.5001, -9.6792, 0.0019, -0.0067, -0.0113, 0.2007, 0.1725, -0.2320, 0.0194, -0.0141, -0.0386, 1376, 101040, 0.5000, 0.5000, -0.5000, 0.0000
1.3610, -0.3825, -0.5001, -9.6792, 0.0019, -0.0067, -0.0113, 0.2129, 0.1869, -0.2354, 0.0205, -0.0051, -0.0492, 1377, 101040, 0.5000, 0.5000, -0.5000, 0.0000
1.3810, -0.3825, -0.5001, -9.6792, 0.0019, -0.0067, -0.0113, 0.2252, 0.2013, -0.2387, 0.0218, 0.0050, -0.0591, 1378, 101040, 0.5000, 0.5000, -0.5000, 0.0000
1.4000, -0.3825, -0.5001, -9.6792, 0.0019, -0.0067, -0.0113, 0.2377, 0.2159, -0.2420, 0.0233, 0.0136, -0.0688, 1379, 101040, 0.5000, 0.5000, -0.5000, 0.0000
1.4200, -0.3825, -0.5001, -9.6792, 0.0019, -0.0067, -0.0113, 0.2502, 0.2304, -0.2452, 0.0248, 0.0215, -0.0771, 1380, 101040, 0.5000, 0.5000, -0.5000, 0.0000
1.4410, -0.3825, -0.5001, -9.6792, 0.0019, -0.0067, -0.0113, 0.2627, 0.2447, -0.2481, 0.0272, 0.0321, -0.0881, 1381, 101040, 0.5000, 0.5000, -0.5000, 0.0000
1.4610, -0.3825, -0.5001, -9.6792, 0.0019, -0.0067, -0.0113, 0.2746, 0.2581, -0.2512, 0.0301, 0.0520, -0.1071, 1382, 101040, 0.5000, 0.5000, -0.5000, 0.0000
1.4800, -0.3825, -0.5001, -9.6792, 0.0019, -0.0067, -0.0113, 0.2863, 0.2711, -0.2536, 0.0347, 0.0821, -0.1357, 1383, 101040, 0.5000, 0.5000, -0.5000, 0.0000
1.5000, -0.3825, -0.5001, -9.6792, 0.0019, -0.0067, -0.0113, 0.2978, 0.2834, -0.2559, 0.0413, 0.1152, -0.1665, 1384, 101040, 0.5000, 0.5000, -0.5000, 0.0000
1.5200, -0.3825, -0.5001, -9.6792, 0.0019, -0.0067, -0.0113, 0.3089, 0.2957, -0.2586, 0.0474, 0.1418, -0.1933, 1385, 101040, 0.5000, 0.5000, -0.5000, 0.0000
1.5400, -0.3825, -0.5001, -9.6792, 0.0019, -0.0067, -0.0113, 0.3201, 0.3077, -0.2622, 0.0523, 0.1556, -0.2098, 1386, 101040, 0.5000, 0.5000, -0.5000, 0.0000
1.5610, -0.3825, -0.5001, -9.6792, 0.0019, -0.0067, -0.0113, 0.3316, 0.3194, -0.2667, 0.0556, 0.1564, -0.2166, 1387, 101040, 0.5000, 0.5000, -0.5000, 0.0000
1.5810, -0.3825, -0.5001, -9.6792, 0.0019, -0.0067, -0.0113, 0.3425, 0.3305, -0.2715, 0.0559, 0.1512, -0.2164, 1388, 101040, 0.5000, 0.5000, -0.5000, 0.0000
1.6000, -0.3825, -0.5001, -9.6792, 0.0019, -0.0067, -0.0113, 0.3529, 0.3411, -0.2762, 0.0558, 0.1455, -0.2101, 1389, 101040, 0.5000, 0.5000, -0.5000, 0.0000
1.6210, -0.3825, -0.5001, -9.6792, 0.0019, -0.0067, -0.0113, 0.3628, 0.3512, -0.2806, 0.0564, 0.1435, -0.2025, 1390, 101040, 0.5000, 0.5000, -0.5000, 0.0000
1.6400, -0.3825, -0.5001, -9.6792, 0.0019, -0.0067, -0.0113, 0.3718, 0.3606, -0.2847, 0.0572, 0.1482, -0.1990, 1391, 101040, 0.5000, 0.5000, -0.5000, 0.0000
1.6600, -0.3825, -0.5001, -9.6792, 0.0019, -0.0067, -0.0113, 0.3805, 0.3692, -0.2883, 0.0583, 0.1537, -0.1982, 1392, 101040, 0.5000, 0.5000, -0.5000, 0.0000
1.6800, -0.3825, -0.5001, -9.6792, 0.0019, -0.0067, -0.0113, 0.3890, 0.3770, -0.2917, 0.0586, 0.1544, -0.1956, 1393, 101040, 0.5000, 0.5000, -0.5000, 0.0000
1.7000, -0.3825, -0.5001, -9.6792, 0.0019, -0.0067, -0.0113, 0.3972, 0.3846, -0.2949, 0.0588, 0.1516, -0.1921, 1394, 101040, 0.5000, 0.5000, -0.5000, 0.0000
1.7200, -0.3825, -0.5001, -9.6792, 0.0019, -0.0067, -0.0113, 0.4048, 0.3916, -0.2978, 0.0579, 0.1462, -0.1877, 1395, 101040, 0.5000, 0.5000, -0.5000, 0.0000
1.7400, -0.3825, -0.5001, -9.6792, 0.0019, -0.0067, -0.0113, 0.4122, 0.3980, -0.3001, 0.0583, 0.1470, -0.1855, 1396, 101040, 0.5000, 0.5000, -0.5000, 0.0000
1.7600, -0.3825, -0.5001, -9.6792, 0.0019, -0.0067, -0.0113, 0.4189, 0.4037, -0.3022, 0.0580, 0.1471, -0.1826, 1397, 101040, 0.5000, 0.5000, -0.5000, 0.0000
1.7800, -0.3825, -0.5001, -9.6792, 0.0019, -0.0067, -0.0113, 0.4254, 0.4095, -0.3039, 0.0577, 0.1441, -0.1783, 1398, 101040, 0.5000, 0.5000, -0.5000, 0.0000
1.8000, -0.3825, -0.5001, -9.6792, 0.0019, -0.0067, -0.0113, 0.4315, 0.4143, -0.3057, 0.0566, 0.1381, -0.1702, 1399, 101040, 0.5000, 0.5000, -0.5000, 0.0000
1.8200, -0.3825, -0.5001, -9.6792, 0.0019, -0.0067, -0.0113, 0.4375, 0.4191, -0.3069, 0.0561, 0.1328, -0.1615, 1400, 101040, 0.5000, 0.5000, -0.5000, 0.0000
1.8400, -0.3825, -0.5001, -9.6792, 0.0019, -0.0067, -0.0113, 0.4429, 0.4233, -0.3080, 0.0554, 0.1271, -0.1539, 1401, 101040, 0.5000, 0.5000, -0.5000, 0.0000
1.8600, -0.3825, -0.5001, -9.6792, 0.0019, -0.0067, -0.0113, 0.4481, 0.4271, -0.3087, 0.0549, 0.1230, -0.1473, 1402, 101040, 0.5000, 0.5000, -0.5000, 0.0000
1.8800, -0.3825, -0.5001, -9.6792, 0.0019, -0.0067, -0.0113, 0.4528, 0.4305, -0.3090, 0.0545, 0.1193, -0.1429, 1403, 101040, 0.5000, 0.5000, -0.5000, 0.0000
1.9000, -0.3825, -0.5001, -9.6792, 0.0019, -0.0067, -0.0113, 0.4572, 0.4334, -0.3093, 0.0544, 0.1177, -0.1389, 1404, 101040, 0.5000, 0.5000, -0.5000, 0.0000
1.9200, -0.3825, -0.5001, -9.6792, 0.0019, -0.0067, -0.0113, 0.4610, 0.4359, -0.3090, 0.0557, 0.1215, -0.1416, 1405, 101040, 0.5000, 0.5000, -0.5000, 0.0000
1.9400, -0.3825, -0.5001, -9.6792, 0.0019, -0.0067, -0.0113, 0.4645, 0.4379, -0.3083, 0.0579, 0.1279, -0.1474, 1406, 101040, 0.5000, 0.5000, -0.5000, 0.0000
1.9610, -0.3825, -0.5001, -9.6792, 0.0019, -0.0067, -0.0113, 0.4677, 0.4393, -0.3086, 0.0592, 0.1276, -0.1483, 1407, 101040, 0.5000, 0.5000, -0.5000, 0.0000
1.9810, -0.3825, -0.5001, -9.6792, 0.0019, -0.0067, -0.0113, 0.4708, 0.4409, -0.3086, 0.0583, 0.1230, -0.1445, 1408, 101040, 0.5000, 0.5000, -0.5000, 0.0000
2.0000, -0.3825, -0.5001, -9.6792, 0.0019, -0.0067, -0.0113, 0.4738, 0.4424, -0.3092, 0.0579, 0.1161, -0.1352, 1409, 101040, 0.5000, 0.5000, -0.5000, 0.0000
2.0210, -0.3825, -0.5001, -9.6792, 0.0019, -0.0067, -0.0113, 0.4763, 0.4437, -0.3093, 0.0567, 0.1090, -0.1255, 1410, 101040, 0.5000, 0.5000, -0.5000, 0.0000
2.0410, -0.3825, -0.5001, -9.6792, 0.0019, -0.0067, -0.0113, 0.4785, 0.4444, -0.3097, 0.0564, 0.1037, -0.1172, 1411, 101040, 0.5000, 0.5000, -0.5000, 0.0000
2.0610, -0.3825, -0.5001, -9.6792, 0.0019, -0.0067, -0.0113, 0.4804, 0.4450, -0.3097, 0.0560, 0.1024, -0.1112, 1412, 101040, 0.5000, 0.5000, -0.5000, 0.0000
2.0810, -0.3825, -0.5001, -9.6792, 0.0019, -0.0067, -0.0113, 0.4820, 0.4455, -0.3096, 0.0556, 0.1005, -0.1050, 1413, 101040, 0.5000, 0.5000, -0.5000, 0.0000
2.1000, -0.3825, -0.5001, -9.6792, 0.0019, -0.0067, -0.0113, 0.4834, 0.4456, -0.3095, 0.0553, 0.0963, -0.0986, 1414, 101040, 0.5000, 0.5000, -0.5000, 0.0000
2.1210, -0.3825, -0.5001, -9.6792, 0.0019, -0.0067, -0.0113, 0.4846, 0.4456, -0.3093, 0.0548, 0.0907, -0.0923, 1415, 101040, 0.5000, 0.5000, -0.5000, 0.0000
2.1410, -0.3825, -0.5001, -9.6792, 0.0019, -0.0067, -0.0113, 0.4858, 0.4454, -0.3092, 0.0545, 0.0844, -0.0843, 1416, 101040, 0.5000, 0.5000, -0.5000, 0.0000
2.1610, -0.3825, -0.5001, -9.6792, 0.0019, -0.0067, -0.0113, 0.4868, 0.4455, -0.3089, 0.0541, 0.0792, -0.0782, 1417, 101040, 0.5000, 0.5000, -0.5000, 0.0000
2.1810, -0.3825, -0.5001, -9.6792, 0.0019, -0.0067, -0.0113, 0.4874, 0.4450, -0.3085, 0.0532, 0.0743, -0.0719, 1418, 101040, 0.5000, 0.5000, -0.5000, 0.0000
2.2000, -0.3825, -0.5001, -9.6792, 0.0019, -0.0067, -0.0113, 0.4879, 0.4447, -0.3082, 0.0528, 0.0701, -0.0664, 1419, 101040, 0.5000, 0.5000, -0.5000, 0.0000
2.2210, -0.3825, -0.5001, -9.6792, 0.0019, -0.0067, -0.0113, 0.4886, 0.4445, -0.3077, 0.0525, 0.0654, -0.0615, 1420, 101040, 0.5000, 0.5000, -0.5000, 0.0000
2.2410, -0.3825, -0.5001, -9.6792, 0.0019, -0.0067, -0.0113, 0.4889, 0.4441, -0.3073, 0.0524, 0.0616, -0.0564, 1421, 101040, 0.5000, 0.5000, -0.5000, 0.0000
2.2600, -0.3825, -0.5001, -9.6792, 0.0019, -0.0067, -0.0113, 0.4892, 0.4437, -0.3069, 0.0517, 0.0579, -0.0519, 1422, 101040, 0.5000, 0.5000, -0.5000, 0.0000
2.2800, -0.3825, -0.5001, -9.6792, 0.0019, -0.0067, -0.0113, 0.4893, 0.4434, -0.3063, 0.0519, 0.0540, -0.0469, 1423, 101040, 0.5000, 0.5000, -0.5000, 0.0000
2.3000, -0.3825, -0.5001, -9.6792, 0.0019, -0.0067, -0.0113, 0.4895, 0.4433, -0.3058, 0.0518, 0.0514, -0.0434, 1424, 101040, 0.5000, 0.5000, -0.5000, 0.0000
2.3200, -0.3825, -0.5001, -9.6792, 0.0019, -0.0067, -0.0113, 0.4895, 0.4428, -0.3053, 0.0514, 0.0495, -0.0408, 1425, 101040, 0.5000, 0.5000, -0.5000, 0.0000
2.3400, -0.3825, -0.5001, -9.6792, 0.0019, -0.0067, -0.0113, 0.4893, 0.4426, -0.3048, 0.0513, 0.0472, -0.0378, 1426, 101040, 0.5000, 0.5000, -0.5000, 0.0000
2.3610, -0.3825, -0.5001, -9.6792, 0.0019, -0.0067, -0.0113, 0.4893, 0.4426, -0.3043, 0.0514, 0.0454, -0.0356, 1427, 101040, 0.5000, 0.5000, -0.5000, 0.0000
2.3810, -0.3825, -0.5001, -9.6792, 0.0019, -0.0067, -0.0113, 0.4892, 0.4425, -0.3038, 0.0514, 0.0430, -0.0337, 1428, 101040, 0.5000, 0.5000, -0.5000, 0.0000
2.4000, -0.3825, -0.5001, -9.6792, 0.0019, -0.0067, -0.0113, 0.4889, 0.4425, -0.3034, 0.0512, 0.0399, -0.0321, 1429, 101040, 0.5000, 0.5000, -0.5000, 0.0000
2.4200, -0.3825, -0.5001, -9.6792, 0.0019, -0.0067, -0.0113, 0.4889, 0.4426, -0.3030, 0.0513, 0.0377, -0.0305, 1430, 101040, 0.5000, 0.5000, -0.5000, 0.0000
2.4400, -0.3825, -0.5001, -9.6792, 0.0019, -0.0067, -0.0113, 0.4888, 0.4431, -0.3025, 0.0513, 0.0360, -0.0297, 1431, 101040, 0.5000, 0.5000, -0.5000, 0.0000
2.4600, -0.3825, -0.5001, -9.6792, 0.0019, -0.0067, -0.0113, 0.4886, 0.4433, -0.3022, 0.0512, 0.0338, -0.0290, 1432, 101040, 0.5000, 0.5000, -0.5000, 0.0000
2.4800, -0.3825, -0.5001, -9.6792, 0.0019, -0.0067, -0.0113, 0.4885, 0.4436, -0.3019, 0.0512, 0.0318, -0.0286, 1433, 101040, 0.5000, 0.5000, -0.5000, 0.0000
2.5000, -0.3825, -0.5001, -9.6792, 0.0019, -0.0067, -0.0113, 0.4885, 0.4443, -0.3013, 0.0510, 0.0292, -0.0285, 1434, 101040, 0.5000, 0.5000, -0.5000, 0.0000
2.5200, -0.3825, -0.5001, -9.6792, 0.0019, -0.0067, -0.0113, 0.4885, 0.4451, -0.3009, 0.0509, 0.0267, -0.0290, 1435, 101040, 0.5000, 0.5000, -0.5000, 0.0000
2.5400, -0.3825, -0.5001, -9.6792, 0.0019, -0.0067, -0.0113, 0.4885, 0.4458, -0.3006, 0.0509, 0.0247, -0.0290, 1436, 101040, 0.5000, 0.5000, -0.5000, 0.0000
2.5600, -0.3825, -0.5001, -9.6792, 0.0019, -0.0067, -0.0113, 0.4886, 0.4468, -0.3002, 0.0508, 0.0235, -0.0289, 1437, 101040, 0.5000, 0.5000, -0.5000, 0.0000
2.5810, -0.3825, -0.5001, -9.6792, 0.0019, -0.0067, -0.0113, 0.4887, 0.4480, -0.2998, 0.0508, 0.0223, -0.0288, 1438, 101040, 0.5000, 0.5000, -0.5000, 0.0000
2.6000, -0.3825, -0.5001, -9.6792, 0.0019, -0.0067, -0.0113, 0.4888, 0.4491, -0.2996, 0.0504, 0.0211, -0.0291, 1439, 101040, 0.5000, 0.5000, -0.5000, 0.0000
2.6210, -0.3825, -0.5001, -9.6792, 0.0019, -0.0067, -0.0113, 0.4890, 0.4503, -0.2994, 0.0509, 0.0198, -0.0296, 1440, 101040, 0.5000, 0.5000, -0.5000, 0.0000
2.6410, -0.3825, -0.5001, -9.6792, 0.0019, -0.0067, -0.0113, 0.4892, 0.4517, -0.2992, 0.0509, 0.0183, -0.0297, 1441, 101040, 0.5000, 0.5000, -0.5000, 0.0000
2.6600, -0.3825, -0.5001, -9.6792, 0.0019, -0.0067, -0.0113, 0.4896, 0.4534, -0.2989, 0.0512, 0.0174, -0.0312, 1442, 101040, 0.5000, 0.5000, -0.5000, 0.0000
2.6800, -0.3825, -0.5001, -9.6792, 0.0019, -0.0067, -0.0113, 0.4900, 0.4551, -0.2989, 0.0509, 0.0165, -0.0327, 1443, 101040, 0.5000, 0.5000, -0.5000, 0.0000
2.7000, -0.3825, -0.5001, -9.6792, 0.0019, -0.0067, -0.0113, 0.4905, 0.4567, -0.2989, 0.0506, 0.0165, -0.0338, 1444, 101040, 0.5000, 0.5000, -0.5000, 0.0000
2.7200, -0.3825, -0.5001, -9.6792, 0.0019, -0.0067, -0.0113, 0.4911, 0.4585, -0.2987, 0.0511, 0.0173, -0.0352, 1445, 101040, 0.5000, 0.5000, -0.5000, 0.0000
2.7410, -0.3825, -0.5001, -9.6792, 0.0019, -0.0067, -0.0113, 0.4917, 0.4607, -0.2984, 0.0515, 0.0172, -0.0367, 1446, 101040, 0.5000, 0.5000, -0.5000, 0.0000
2.7610, -0.3825, -0.5001, -9.6792, 0.0019, -0.0067, -0.0113, 0.4924, 0.4625, -0.2983, 0.0520, 0.0180, -0.0394, 1447, 101040, 0.5000, 0.5000, -0.5000, 0.0000
2.7800, -0.3825, -0.5001, -9.6792, 0.0019, -0.0067, -0.0113, 0.4931, 0.4645, -0.2982, 0.0514, 0.0184, -0.0416, 1448, 101040, 0.5000, 0.5000, -0.5000, 0.0000
2.8000, -0.3825, -0.5001, -9.6792, 0.0019, -0.0067, -0.0113, 0.4941, 0.4668, -0.2981, 0.0521, 0.0184, -0.0431, 1449, 101040, 0.5000, 0.5000, -0.5000, 0.0000
2.8200, -0.3825, -0.5001, -9.6792, 0.0019, -0.0067, -0.0113, 0.4949, 0.4690, -0.2980, 0.0523, 0.0190, -0.0447, 1450, 101040, 0.5000, 0.5000, -0.5000, 0.0000
2.8410, -0.3825, -0.5001, -9.6792, 0.0019, -0.0067, -0.0113, 0.4958, 0.4711, -0.2980, 0.0525, 0.0193, -0.0468, 1451, 101040, 0.5000, 0.5000, -0.5000, 0.0000
2.8600, -0.3825, -0.5001, -9.6792, 0.0019, -0.0067, -0.0113, 0.4969, 0.4735, -0.2981, 0.0530, 0.0201, -0.0494, 1452, 101040, 0.5000, 0.5000, -0.5000, 0.0000
2.8800, -0.3825, -0.5001, -9.6792, 0.0019, -0.0067, -0.0113, 0.4980, 0.4758, -0.2983, 0.0532, 0.0200, -0.0512, 1453, 101040, 0.5000, 0.5000, -0.5000, 0.0000
2.9000, -0.3825, -0.5001, -9.6792, 0.0019, -0.0067, -0.0113, 0.4992, 0.4782, -0.2984, 0.0533, 0.0210, -0.0531, 1454, 101040, 0.5000, 0.5000, -0.5000, 0.0000
2.9210, -0.3825, -0.5001, -9.6792, 0.0019, -0.0067, -0.0113, 0.5005, 0.4805, -0.2986, 0.0538, 0.0216, -0.0552, 1455, 101040, 0.5000, 0.5000, -0.5000, 0.0000
2.9400, -0.3825, -0.5001, -9.6792, 0.0019, -0.0067, -0.0113, 0.5017, 0.4829, -0.2989, 0.0540, 0.0239, -0.0570, 1456, 101040, 0.5000, 0.5000, -0.5000, 0.0000
2.9610, -0.3825, -0.5001, -9.6792, 0.0019, -0.0067, -0.0113, 0.5029, 0.4854, -0.2989, 0.0545, 0.0246, -0.0587, 1457, 101040, 0.5000, 0.5000, -0.5000, 0.0000
2.9810, -0.3825, -0.5001, -9.6792, 0.0019, -0.0067, -0.0113, 0.5043, 0.4876, -0.2990, 0.0550, 0.0257, -0.0609, 1458, 101040, 0.5000, 0.5000, -0.5000, 0.0000
3.0000, -0.3825, -0.5001, -9.6792, 0.0019, -0.0067, -0.0113, 0.5057, 0.4898, -0.2992, 0.0551, 0.0278, -0.0636, 1459, 101040, 0.5000, 0.5000, -0.5000, 0.0000
3.0200, -0.3825, -0.5001, -9.6792, 0.0019, -0.0067, -0.0113, 0.5071, 0.4922, -0.2993, 0.0550, 0.0285, -0.0655, 1460, 101040, 0.5000, 0.5000, -0.5000, 0.0000
3.0400, -0.3825, -0.5001, -9.6792, 0.0019, -0.0067, -0.0113, 0.5086, 0.4943, -0.2993, 0.0555, 0.0296, -0.0678, 1461, 101040, 0.5000, 0.5000, -0.5000, 0.0000
3.0600, -0.3825, -0.5001, -9.6792, 0.0019, -0.0067, -0.0113, 0.5101, 0.4965, -0.2994, 0.0557, 0.0309, -0.0700, 1462, 101040, 0.5000, 0.5000, -0.5000, 0.0000
3.0800, -0.3825, -0.5001, -9.6792, 0.0019, -0.0067, -0.0113, 0.5116, 0.4985, -0.2994, 0.0557, 0.0318, -0.0727, 1463, 101040, 0.5000, 0.5000, -0.5000, 0.0000
3.1000, -0.3825, -0.5001, -9.6792, 0.0019, -0.0067, -0.0113, 0.5131, 0.5006, -0.2994, 0.0563, 0.0336, -0.0764, 1464, 101040, 0.5000, 0.5000, -0.5000, 0.0000
3.1200, -0.3825, -0.5001, -9.6792, 0.0019, -0.0067, -0.0113, 0.5146, 0.5024, -0.2992, 0.0564, 0.0378, -0.0825, 1465, 101040, 0.5000, 0.5000, -0.5000, 0.0000
3.1400, -0.3825, -0.5001, -9.6792, 0.0019, -0.0067, -0.0113, 0.5161, 0.5042, -0.2992, 0.0568, 0.0402, -0.0862, 1466, 101040, 0.5000, 0.5000, -0.5000, 0.0000
3.1610, -0.3825, -0.5001, -9.6792, 0.0019, -0.0067, -0.0113, 0.5176, 0.5060, -0.2991, 0.0569, 0.0398, -0.0873, 1467, 101040, 0.5000, 0.5000, -0.5000, 0.0000
3.1810, -0.3825, -0.5001, -9.6792, 0.0019, -0.0067, -0.0113, 0.5193, 0.5078, -0.2992, 0.0570, 0.0396, -0.0865, 1468, 101040, 0.5000, 0.5000, -0.5000, 0.0000
3.2000, -0.3825, -0.5001, -9.6792, 0.0019, -0.0067, -0.0113, 0.5210, 0.5095, -0.2991, 0.0570, 0.0389, -0.0851, 1469, 101040, 0.5000, 0.5000, -0.5000, 0.0000
3.2210, -0.3825, -0.5001, -9.6792, 0.0019, -0.0067, -0.0113, 0.5225, 0.5111, -0.2990, 0.0568, 0.0387, -0.0831, 1470, 101040, 0.5000, 0.5000, -0.5000, 0.0000
3.2410, -0.3825, -0.5001, -9.6792, 0.0019, -0.0067, -0.0113, 0.5240, 0.5126, -0.2988, 0.0569, 0.0394, -0.0813, 1471, 101040, 0.5000, 0.5000, -0.5000, 0.0000
3.2610, -0.3825, -0.5001, -9.6792, 0.0019, -0.0067, -0.0113, 0.5257, 0.5142, -0.2985, 0.0570, 0.0401, -0.0801, 1472, 101040, 0.5000, 0.5000, -0.5000, 0.0000
3.2810, -0.3825, -0.5001, -9.6792, 0.0019, -0.0067, -0.0113, 0.5273, 0.5153, -0.2982, 0.0571, 0.0409, -0.0795, 1473, 101040, 0.5000, 0.5000, -0.5000, 0.0000
3.3000, -0.3825, -0.5001, -9.6792, 0.0019, -0.0067, -0.0113, 0.5287, 0.5164, -0.2979, 0.0569, 0.0414, -0.0796, 1474, 101040, 0.5000, 0.5000, -0.5000, 0.0000
3.3200, -0.3825, -0.5001, -9.6792, 0.0019, -0.0067, -0.0113, 0.5304, 0.5176, -0.2975, 0.0570, 0.0424, -0.0793, 1475, 101040, 0.5000, 0.5000, -0.5000, 0.0000
3.3410, -0.3825, -0.5001, -9.6792, 0.0019, -0.0067, -0.0113, 0.5319, 0.5187, -0.2972, 0.0567, 0.0443, -0.0801, 1476, 101040, 0.5000, 0.5000, -0.5000, 0.0000
3.3610, -0.3825, -0.5001, -9.6792, 0.0019, -0.0067, -0.0113, 0.5331, 0.5192, -0.2970, 0.0569, 0.0473, -0.0821, 1477, 101040, 0.5000, 0.5000, -0.5000, 0.0000
3.3810, -0.3825, -0.5001, -9.6792, 0.0019, -0.0067, -0.0113, 0.5346, 0.5200, -0.2966, 0.0574, 0.0490, -0.0830, 1478, 101040, 0.5000, 0.5000, -0.5000, 0.0000
3.4000, -0.3825, -0.5001, -9.6792, 0.0019, -0.0067, -0.0113, 0.5360, 0.5208, -0.2963, 0.0576, 0.0493, -0.0832, 1479, 101040, 0.5000, 0.5000, -0.5000, 0.0000
3.4200, -0.3825, -0.5001, -9.6792, 0.0019, -0.0067, -0.0113, 0.5374, 0.5213, -0.2961, 0.0571, 0.0500, -0.0819, 1480, 101040, 0.5000, 0.5000, -0.5000, 0.0000
3.4400, -0.3825, -0.5001, -9.6792, 0.0019, -0.0067, -0.0113, 0.5388, 0.5216, -0.2959, 0.0572, 0.0503, -0.0809, 1481, 101040, 0.5000, 0.5000, -0.5000, 0.0000
3.4600, -0.3825, -0.5001, -9.6792, 0.0019, -0.0067, -0.0113, 0.5400, 0.5220, -0.2956, 0.0571, 0.0522, -0.0798, 1482, 101040, 0.5000, 0.5000, -0.5000, 0.0000
3.4810, -0.3825, -0.5001, -9.6792, 0.0019, -0.0067, -0.0113, 0.5412, 0.5225, -0.2954, 0.0573, 0.0545, -0.0795, 1483, 101040, 0.5000, 0.5000, -0.5000, 0.0000
3.5000, -0.3825, -0.5001, -9.6792, 0.0019, -0.0067, -0.0113, 0.5423, 0.5225, -0.2952, 0.0576, 0.0548, -0.0788, 1484, 101040, 0.5000, 0.5000, -0.5000, 0.0000
3.5210, -0.3825, -0.5001, -9.6792, 0.0019, -0.0067, -0.0113, 0.5434, 0.5225, -0.2950, 0.0574, 0.0547, -0.0787, 1485, 101040, 0.5000, 0.5000, -0.5000, 0.0000
3.5410, -0.3825, -0.5001, -9.6792, 0.0019, -0.0067, -0.0113, 0.5446, 0.5226, -0.2948, 0.0573, 0.0553, -0.0790, 1486, 101040, 0.5000, 0.5000, -0.5000, 0.0000
3.5610, -0.3825, -0.5001, -9.6792, 0.0019, -0.0067, -0.0113, 0.5455, 0.5224, -0.2947, 0.0569, 0.0554, -0.0784, 1487, 101040, 0.5000, 0.5000, -0.5000, 0.0000
3.5810, -0.3825, -0.5001, -9.6792, 0.0019, -0.0067, -0.0113, 0.5465, 0.5222, -0.2947, 0.0567, 0.0548, -0.0767, 1488, 101040, 0.5000, 0.5000, -0.5000, 0.0000
3.6000, -0.3825, -0.5001, -9.6792, 0.0019, -0.0067, -0.0113, 0.5474, 0.5219, -0.2945, 0.0565, 0.0547, -0.0753, 1489, 101040, 0.5000, 0.5000, -0.5000, 0.0000
3.6210, -0.3825, -0.5001, -9.6792, 0.0019, -0.0067, -0.0113, 0.5482, 0.5217, -0.2943, 0.0565, 0.0549, -0.0740, 1490, 101040, 0.5000, 0.5000, -0.5000, 0.0000
3.6410, -0.3825, -0.5001, -9.6792, 0.0019, -0.0067, -0.0113, 0.5488, 0.5214, -0.2941, 0.0562, 0.0549, -0.0723, 1491, 101040, 0.5000, 0.5000, -0.5000, 0.0000
3.6610, -0.3825, -0.5001, -9.6792, 0.0019, -0.0067, -0.0113, 0.5495, 0.5208, -0.2940, 0.0561, 0.0549, -0.0701, 1492, 101040, 0.5000, 0.5000, -0.5000, 0.0000
3.6810, -0.3825, -0.5001, -9.6792, 0.0019, -0.0067, -0.0113, 0.5502, 0.5204, -0.2938, 0.0559, 0.0545, -0.0681, 1493, 101040, 0.5000, 0.5000, -0.5000, 0.0000
3.7000, -0.3825, -0.5001, -9.6792, 0.0019, -0.0067, -0.0113, 0.5508, 0.5200, -0.2936, 0.0558, 0.0540, -0.0663, 1494, 101040, 0.5000, 0.5000, -0.5000, 0.0000
3.7210, -0.3825, -0.5001, -9.6792, 0.0019, -0.0067, -0.0113, 0.5513, 0.5194, -0.2934, 0.0558, 0.0537, -0.0638, 1495, 101040, 0.5000, 0.5000, -0.5000, 0.0000
3.7410, -0.3825, -0.5001, -9.6792, 0.0019, -0.0067, -0.0113, 0.5518, 0.5189, -0.2931, 0.0558, 0.0528, -0.0621, 1496, 101040, 0.5000, 0.5000, -0.5000, 0.0000
3.7610, -0.3825, -0.5001, -9.6792, 0.0019, -0.0067, -0.0113, 0.5523, 0.5184, -0.2928, 0.0559, 0.0522, -0.0609, 1497, 101040, 0.5000, 0.5000, -0.5000, 0.0000
3.7810, -0.3825, -0.5001, -9.6792, 0.0019, -0.0067, -0.0113, 0.5526, 0.5179, -0.2926, 0.0557, 0.0522, -0.0606, 1498, 101040, 0.5000, 0.5000, -0.5000, 0.0000
3.8000, -0.3825, -0.5001, -9.6792, 0.0019, -0.0067, -0.0113, 0.5528, 0.5171, -0.2925, 0.0557, 0.0520, -0.0598, 1499, 101040, 0.5000, 0.5000, -0.5000, 0.0000
3.8200, -0.3825, -0.5001, -9.6792, 0.0019, -0.0067, -0.0113, 0.5531, 0.5166, -0.2924, 0.0559, 0.0522, -0.0588, 1500, 101040, 0.5000, 0.5000, -0.5000, 0.0000
3.8400, -0.3825, -0.5001, -9.6792, 0.0019, -0.0067, -0.0113, 0.5533, 0.5161, -0.2922, 0.0557, 0.0517, -0.0572, 1501, 101040, 0.5000, 0.5000, -0.5000, 0.0000
3.8600, -0.3825, -0.5001, -9.6792, 0.0019, -0.0067, -0.0113, 0.5534, 0.5155, -0.2922, 0.0557, 0.0507, -0.0552, 1502, 101040, 0.5000, 0.5000, -0.5000, 0.0000
3.8800, -0.3825, -0.5001, -9.6792, 0.0019, -0.0067, -0.0113, 0.5535, 0.5150, -0.2919, 0.0557, 0.0492, -0.0541, 1503, 101040, 0.5000, 0.5000, -0.5000, 0.0000
3.9000, -0.3825, -0.5001, -9.6792, 0.0019, -0.0067, -0.0113, 0.5536, 0.5145, -0.2918, 0.0558, 0.0489, -0.0540, 1504, 101040, 0.5000, 0.5000, -0.5000, 0.0000
3.9200, -0.3825, -0.5001, -9.6792, 0.0019, -0.0067, -0.0113, 0.5536, 0.5140, -0.2916, 0.0561, 0.0490, -0.0540, 1505, 101040, 0.5000, 0.5000, -0.5000, 0.0000
3.9400, -0.3825, -0.5001, -9.6792, 0.0019, -0.0067, -0.0113, 0.5536, 0.5134, -0.2914, 0.0560, 0.0480, -0.0537, 1506, 101040, 0.5000, 0.5000, -0.5000, 0.0000
3.9610, -0.3825, -0.5001, -9.6792, 0.0019, -0.0067, -0.0113, 0.5536, 0.5129, -0.2913, 0.0561, 0.0479, -0.0530, 1507, 101040, 0.5000, 0.5000, -0.5000, 0.0000
3.9810, -0.3825, -0.5001, -9.6792, 0.0019, -0.0067, -0.0113, 0.5535, 0.5126, -0.2911, 0.0563, 0.0480, -0.0521, 1508, 101040, 0.5000, 0.5000, -0.5000, 0.0000
4.0000, -0.3825, -0.5001, -9.6792, 0.0019, -0.0067, -0.0113, 0.5533, 0.5122, -0.2909, 0.0565, 0.0476, -0.0504, 1509, 101040, 0.5000, 0.5000, -0.5000, 0.0000
4.0210, -0.3825, -0.5001, -9.6792, 0.0019, -0.0067, -0.0113, 0.5533, 0.5118, -0.2907, 0.0565, 0.0465, -0.0504, 1510, 101040, 0.5000, 0.5000, -0.5000, 0.0000
4.0410, -0.3825, -0.5001, -9.6792, 0.0019, -0.0067, -0.0113, 0.5531, 0.5114, -0.2904, 0.0564, 0.0459, -0.0505, 1511, 101040, 0.5000, 0.5000, -0.5000, 0.0000
4.0610, -0.3825, -0.5001, -9.6792, 0.0019, -0.0067, -0.0113, 0.5528, 0.5111, -0.2901, 0.0567, 0.0452, -0.0499, 1512, 101040, 0.5000, 0.5000, -0.5000, 0.0000
4.0810, -0.3825, -0.5001, -9.6792, 0.0019, -0.0067, -0.0113, 0.5526, 0.5108, -0.2898, 0.0565, 0.0443, -0.0501, 1513, 101040, 0.5000, 0.5000, -0.5000, 0.0000
4.1000, -0.3825, -0.5001, -9.6792, 0.0019, -0.0067, -0.0113, 0.5523, 0.5104, -0.2896, 0.0567, 0.0439, -0.0498, 1514, 101040, 0.5000, 0.5000, -0.5000, 0.0000
4.1200, -0.3825, -0.5001, -9.6792, 0.0019, -0.0067, -0.0113, 0.5521, 0.5103, -0.2893, 0.0567, 0.0437, -0.0496, 1515, 101040, 0.5000, 0.5000, -0.5000, 0.0000
4.1400, -0.3825, -0.5001, -9.6792, 0.0019, -0.0067, -0.0113, 0.5517, 0.5100, -0.2891, 0.0571, 0.0428, -0.0493, 1516, 101040, 0.5000, 0.5000, -0.5000, 0.0000
4.1600, -0.3825, -0.5001, -9.6792, 0.0019, -0.0067, -0.0113, 0.5514, 0.5098, -0.2889, 0.0571, 0.0421, -0.0491, 1517, 101040, 0.5000, 0.5000, -0.5000, 0.0000
4.1810, -0.3825, -0.5001, -9.6792, 0.0019, -0.0067, -0.0113, 0.5511, 0.5096, -0.2886, 0.0571, 0.0414, -0.0490, 1518, 101040, 0.5000, 0.5000, -0.5000, 0.0000
4.2000, -0.3825, -0.5001, -9.6792, 0.0019, -0.0067, -0.0113, 0.5508, 0.5096, -0.2881, 0.0571, 0.0410, -0.0490, 1519, 101040, 0.5000, 0.5000, -0.5000, 0.0000
4.2210, -0.3825, -0.5001, -9.6792, 0.0019, -0.0067, -0.0113, 0.5505, 0.5096, -0.2878, 0.0573, 0.0407, -0.0497, 1520, 101040, 0.5000, 0.5000, -0.5000, 0.0000
4.2410, -0.3825, -0.5001, -9.6792, 0.0019, -0.0067, -0.0113, 0.5501, 0.5093, -0.2875, 0.0572, 0.0404, -0.0503, 1521, 101040, 0.5000, 0.5000, -0.5000, 0.0000
4.2600, -0.3825, -0.5001, -9.6792, 0.0019, -0.0067, -0.0113, 0.5498, 0.5094, -0.2870, 0.0574, 0.0394, -0.0497, 1522, 101040, 0.5000, 0.5000, -0.5000, 0.0000
4.2810, -0.3825, -0.5001, -9.6792, 0.0019, -0.0067, -0.0113, 0.5495, 0.5096, -0.2865, 0.0578, 0.0384, -0.0486, 1523, 101040, 0.5000, 0.5000, -0.5000, 0.0000
4.3000, -0.3825, -0.5001, -9.6792, 0.0019, -0.0067, -0.0113, 0.5492, 0.5097, -0.2860, 0.0578, 0.0378, -0.0474, 1524, 101040, 0.5000, 0.5000, -0.5000, 0.0000
4.3210, -0.3825, -0.5001, -9.6792, 0.0019, -0.0067, -0.0113, 0.5491, 0.5098, -0.2856, 0.0579, 0.0377, -0.0471, 1525, 101040, 0.5000, 0.5000, -0.5000, 0.0000
4.3410, -0.3825, -0.5001, -9.6792, 0.0019, -0.0067, -0.0113, 0.5487, 0.5099, -0.2852, 0.0579, 0.0373, -0.0451, 1526, 101040, 0.5000, 0.5000, -0.5000, 0.0000
4.3610, -0.3825, -0.5001, -9.6792, 0.0019, -0.0067, -0.0113, 0.5484, 0.5104, -0.2847, 0.0581, 0.0366, -0.0445, 1527, 101040, 0.5000, 0.5000, -0.5000, 0.0000
4.3810, -0.3825, -0.5001, -9.6792, 0.0019, -0.0067, -0.0113, 0.5482, 0.5105, -0.2845, 0.0582, 0.0363, -0.0446, 1528, 101040, 0.5000, 0.5000, -0.5000, 0.0000
4.4000, -0.3825, -0.5001, -9.6792, 0.0019, -0.0067, -0.0113, 0.5479, 0.5109, -0.2842, 0.0585, 0.0361, -0.0446, 1529, 101040, 0.5000, 0.5000, -0.5000, 0.0000
4.4210, -0.3825, -0.5001, -9.6792, 0.0019, -0.0067, -0.0113, 0.5477, 0.5113, -0.2839, 0.0585, 0.0355, -0.0445, 1530, 101040, 0.5000, 0.5000, -0.5000, 0.0000
4.4410, -0.3825, -0.5001, -9.6792, 0.0019, -0.0067, -0.0113, 0.5474, 0.5117, -0.2838, 0.0588, 0.0353, -0.0447, 1531, 101040, 0.5000, 0.5000, -0.5000, 0.0000
4.4600, -0.3825, -0.5001, -9.6792, 0.0019, -0.0067, -0.0113, 0.5471, 0.5123, -0.2836, 0.0588, 0.0342, -0.0454, 1532, 101040, 0.5000, 0.5000, -0.5000, 0.0000
4.4810, -0.3825, -0.5001, -9.6792, 0.0019, -0.0067, -0.0113, 0.5470, 0.5127, -0.2836, 0.0591, 0.0330, -0.0454, 1533, 101040, 0.5000, 0.5000, -0.5000, 0.0000
4.5000, -0.3825, -0.5001, -9.6792, 0.0019, -0.0067, -0.0113, 0.5467, 0.5134, -0.2835, 0.0592, 0.0324, -0.0461, 1534, 101040, 0.5000, 0.5000, -0.5000, 0.0000
4.5210, -0.3825, -0.5001, -9.6792, 0.0019, -0.0067, -0.0113, 0.5466, 0.5140, -0.2834, 0.0595, 0.0309, -0.0464, 1535, 101040, 0.5000, 0.5000, -0.5000, 0.0000
4.5410, -0.3825, -0.5001, -9.6792, 0.0019, -0.0067, -0.0113, 0.5464, 0.5147, -0.2834, 0.0597, 0.0302, -0.0467, 1536, 101040, 0.5000, 0.5000, -0.5000, 0.0000
4.5610, -0.3825, -0.5001, -9.6792, 0.0019, -0.0067, -0.0113, 0.5463, 0.5156, -0.2833, 0.0596, 0.0296, -0.0471, 1537, 101040, 0.5000, 0.5000, -0.5000, 0.0000
4.5810, -0.3825, -0.5001, -9.6792, 0.0019, -0.0067, -0.0113, 0.5462, 0.5163, -0.2834, 0.0599, 0.0288, -0.0465, 1538, 101040, 0.5000, 0.5000, -0.5000, 0.0000
4.6000, -0.3825, -0.5001, -9.6792, 0.0019, -0.0067, -0.0113, 0.5462, 0.5174, -0.2833, 0.0601, 0.0283, -0.0467, 1539, 101040, 0.5000, 0.5000, -0.5000, 0.0000
4.6210, -0.3825, -0.5001, -9.6792, 0.0019, -0.0067, -0.0113, 0.5461, 0.5181, -0.2834, 0.0600, 0.0282, -0.0473, 1540, 101040, 0.5000, 0.5000, -0.5000, 0.0000
4.6410, -0.3825, -0.5001, -9.6792, 0.0019, -0.0067, -0.0113, 0.5461, 0.5191, -0.2833, 0.0606, 0.0276, -0.0492, 1541, 101040, 0.5000, 0.5000, -0.5000, 0.0000
4.6610, -0.3825, -0.5001, -9.6792, 0.0019, -0.0067, -0.0113, 0.5461, 0.5200, -0.2831, 0.0604, 0.0278, -0.0515, 1542, 101040, 0.5000, 0.5000, -0.5000, 0.0000
4.6810, -0.3825, -0.5001, -9.6792, 0.0019, -0.0067, -0.0113, 0.5462, 0.5208, -0.2831, 0.0609, 0.0285, -0.0535, 1543, 101040, 0.5000, 0.5000, -0.5000, 0.0000
4.7000, -0.3825, -0.5001, -9.6792, 0.0019, -0.0067, -0.0113, 0.5462, 0.5218, -0.2829, 0.0609, 0.0288, -0.0556, 1544, 101040, 0.5000, 0.5000, -0.5000, 0.0000
4.7200, -0.3825, -0.5001, -9.6792, 0.0019, -0.0067, -0.0113, 0.5462, 0.5229, -0.2827, 0.0609, 0.0286, -0.0568, 1545, 101040, 0.5000, 0.5000, -0.5000, 0.0000
4.7400, -0.3825, -0.5001, -9.6792, 0.0019, -0.0067, -0.0113, 0.5463, 0.5240, -0.2827, 0.0613, 0.0296, -0.0584, 1546, 101040, 0.5000, 0.5000, -0.5000, 0.0000
4.7610, -0.3825, -0.5001, -9.6792, 0.0019, -0.0067, -0.0113, 0.5463, 0.5248, -0.2826, 0.0615, 0.0305, -0.0590, 1547, 101040, 0.5000, 0.5000, -0.5000, 0.0000
4.7810, -0.3825, -0.5001, -9.6792, 0.0019, -0.0067, -0.0113, 0.5465, 0.5258, -0.2825, 0.0619, 0.0309, -0.0598, 1548, 101040, 0.5000, 0.5000, -0.5000, 0.0000
4.8000, -0.3825, -0.5001, -9.6792, 0.0019, -0.0067, -0.0113, 0.5468, 0.5269, -0.2825, 0.0621, 0.0319, -0.0611, 1549, 101040, 0.5000, 0.5000, -0.5000, 0.0000
4.8210, -0.3825, -0.5001, -9.6792, 0.0019, -0.0067, -0.0113, 0.5470, 0.5278, -0.2825, 0.0622, 0.0320, -0.0617, 1550, 101040, 0.5000, 0.5000, -0.5000, 0.0000
4.8410, -0.3825, -0.5001, -9.6792, 0.0019, -0.0067, -0.0113, 0.5472, 0.5288, -0.2825, 0.0625, 0.0329, -0.0627, 1551, 101040, 0.5000, 0.5000, -0.5000, 0.0000
4.8610, -0.3825, -0.5001, -9.6792, 0.0019, -0.0067, -0.0113, 0.5473, 0.5297, -0.2825, 0.0627, 0.0340, -0.0629, 1552, 101040, 0.5000, 0.5000, -0.5000, 0.0000
4.8810, -0.3825, -0.5001, -9.6792, 0.0019, -0.0067, -0.0113, 0.5476, 0.5307, -0.2825, 0.0631, 0.0351, -0.0638, 1553, 101040, 0.5000, 0.5000, -0.5000, 0.0000
4.9000, -0.3825, -0.5001, -9.6792, 0.0019, -0.0067, -0.0113, 0.5479, 0.5316, -0.2825, 0.0633, 0.0359, -0.0650, 1554, 101040, 0.5000, 0.5000, -0.5000, 0.0000
4.9210, -0.3825, -0.5001, -9.6792, 0.0019, -0.0067, -0.0113, 0.5481, 0.5325, -0.2824, 0.0637, 0.0373, -0.0663, 1555, 101040, 0.5000, 0.5000, -0.5000, 0.0000
4.9410, -0.3825, -0.5001, -9.6792, 0.0019, -0.0067, -0.0113, 0.5483, 0.5335, -0.2823, 0.0640, 0.0374, -0.0676, 1556, 101040, 0.5000, 0.5000, -0.5000, 0.0000
4.9610, -0.3825, -0.5001, -9.6792, 0.0019, -0.0067, -0.0113, 0.5487, 0.5343, -0.2823, 0.0639, 0.0375, -0.0687, 1557, 101040, 0.5000, 0.5000, -0.5000, 0.0000
4.9810, -0.3825, -0.5001, -9.6792, 0.0019, -0.0067, -0.0113, 0.5490, 0.5351, -0.2822, 0.0641, 0.0375, -0.0699, 1558, 101040, 0.5000, 0.5000, -0.5000, 0.0000
5.0000, -0.3825, -0.5001, -9.6792, 0.0019, -0.0067, -0.0113, 0.5492, 0.5358, -0.2821, 0.0642, 0.0368, -0.0705, 1559, 101040, 0.5000, 0.5000, -0.5000, 0.0000
5.0210, -0.3825, -0.5001, -9.6792, 0.0019, -0.0067, -0.0113, 0.5496, 0.5367, -0.2820, 0.0644, 0.0368, -0.0718, 1560, 101040, 0.5000, 0.5000, -0.5000, 0.0000
5.0410, -0.3825, -0.5001, -9.6792, 0.0019, -0.0067, -0.0113, 0.5498, 0.5373, -0.2819, 0.0645, 0.0371, -0.0728, 1561, 101040, 0.5000, 0.5000, -0.5000, 0.0000
5.0610, -0.3825, -0.5001, -9.6792, 0.0019, -0.0067, -0.0113, 0.5501, 0.5379, -0.2817, 0.0647, 0.0372, -0.0740, 1562, 101040, 0.5000, 0.5000, -0.5000, 0.0000
5.0800, -0.3825, -0.5001, -9.6792, 0.0019, -0.0067, -0.0113, 0.5505, 0.5385, -0.2815, 0.0648, 0.0375, -0.0750, 1563, 101040, 0.5000, 0.5000, -0.5000, 0.0000
5.1000, -0.3825, -0.5001, -9.6792, 0.0019, -0.0067, -0.0113, 0.5508, 0.5390, -0.2814, 0.0649, 0.0374, -0.0752, 1564, 101040, 0.5000, 0.5000, -0.5000, 0.0000
5.1200, -0.3825, -0.5001, -9.6792, 0.0019, -0.0067, -0.0113, 0.5513, 0.5395, -0.2812, 0.0648, 0.0369, -0.0751, 1565, 101040, 0.5000, 0.5000, -0.5000, 0.0000
5.1410, -0.3825, -0.5001, -9.6792, 0.0019, -0.0067, -0.0113, 0.5516, 0.5398, -0.2811, 0.0648, 0.0364, -0.0741, 1566, 101040, 0.5000, 0.5000, -0.5000, 0.0000
5.1610, -0.3825, -0.5001, -9.6792, 0.0019, -0.0067, -0.0113, 0.5520, 0.5403, -0.2810, 0.0648, 0.0368, -0.0737, 1567, 101040, 0.5000, 0.5000, -0.5000, 0.0000
5.1800, -0.3825, -0.5001, -9.6792, 0.0019, -0.0067, -0.0113, 0.5524, 0.5406, -0.2809, 0.0646, 0.0366, -0.0730, 1568, 101040, 0.5000, 0.5000, -0.5000, 0.0000
5.2000, -0.3825, -0.5001, -9.6792, 0.0019, -0.0067, -0.0113, 0.5528, 0.5408, -0.2810, 0.0646, 0.0371, -0.0721, 1569, 101040, 0.5000, 0.5000, -0.5000, 0.0000
5.2200, -0.3825, -0.5001, -9.6792, 0.0019, -0.0067, -0.0113, 0.5530, 0.5409, -0.2810, 0.0647, 0.0376, -0.0722, 1570, 101040, 0.5000, 0.5000, -0.5000, 0.0000
5.2410, -0.3825, -0.5001, -9.6792, 0.0019, -0.0067, -0.0113, 0.5535, 0.5411, -0.2810, 0.0647, 0.0377, -0.0716, 1571, 101040, 0.5000, 0.5000, -0.5000, 0.0000
5.2610, -0.3825, -0.5001, -9.6792, 0.0019, -0.0067, -0.0113, 0.5539, 0.5412, -0.2811, 0.0645, 0.0383, -0.0715, 1572, 101040, 0.5000, 0.5000, -0.5000, 0.0000
5.2810, -0.3825, -0.5001, -9.6792, 0.0019, -0.0067, -0.0113, 0.5542, 0.5412, -0.2812, 0.0645, 0.0379, -0.0695, 1573, 101040, 0.5000, 0.5000, -0.5000, 0.0000
5.3000, -0.3825, -0.5001, -9.6792, 0.0019, -0.0067, -0.0113, 0.5546, 0.5414, -0.2812, 0.0645, 0.0374, -0.0680, 1574, 101040, 0.5000, 0.5000, -0.5000, 0.0000
5.3210, -0.3825, -0.5001, -9.6792, 0.0019, -0.0067, -0.0113, 0.5548, 0.5415, -0.2813, 0.0643, 0.0382, -0.0671, 1575, 101040, 0.5000, 0.5000, -0.5000, 0.0000
5.3400, -0.3825, -0.5001, -9.6792, 0.0019, -0.0067, -0.0113, 0.5552, 0.5413, -0.2814, 0.0644, 0.0384, -0.0663, 1576, 101040, 0.5000, 0.5000, -0.5000, 0.0000
5.3600, -0.3825, -0.5001, -9.6792, 0.0019, -0.0067, -0.0113, 0.5556, 0.5412, -0.2816, 0.0643, 0.0384, -0.0652, 1577, 101040, 0.5000, 0.5000, -0.5000, 0.0000
5.3800, -0.3825, -0.5001, -9.6792, 0.0019, -0.0067, -0.0113, 0.5559, 0.5412, -0.2819, 0.0642, 0.0390, -0.0634, 1578, 101040, 0.5000, 0.5000, -0.5000, 0.0000
5.4000, -0.3825, -0.5001, -9.6792, 0.0019, -0.0067, -0.0113, 0.5563, 0.5412, -0.2822, 0.0641, 0.0393, -0.0623, 1579, 101040, 0.5000, 0.5000, -0.5000, 0.0000
5.4200, -0.3825, -0.5001, -9.6792, 0.0019, -0.0067, -0.0113, 0.5566, 0.5409, -0.2826, 0.0640, 0.0395, -0.0615, 1580, 101040, 0.5000, 0.5000, -0.5000, 0.0000
5.4400, -0.3825, -0.5001, -9.6792, 0.0019, -0.0067, -0.0113, 0.5568, 0.5408, -0.2828, 0.0640, 0.0403, -0.0617, 1581, 101040, 0.5000, 0.5000, -0.5000, 0.0000
5.4610, -0.3825, -0.5001, -9.6792, 0.0019, -0.0067, -0.0113, 0.5572, 0.5407, -0.2830, 0.0638, 0.0408, -0.0624, 1582, 101040, 0.5000, 0.5000, -0.5000, 0.0000
5.4810, -0.3825, -0.5001, -9.6792, 0.0019, -0.0067, -0.0113, 0.5576, 0.5404, -0.2831, 0.0642, 0.0410, -0.0631, 1583, 101040, 0.5000, 0.5000, -0.5000, 0.0000
5.5000, -0.3825, -0.5001, -9.6792, 0.0019, -0.0067, -0.0113, 0.5578, 0.5401, -0.2834, 0.0640, 0.0415, -0.0628, 1584, 101040, 0.5000, 0.5000, -0.5000, 0.0000
5.5210, -0.3825, -0.5001, -9.6792, 0.0019, -0.0067, -0.0113, 0.5581, 0.5399, -0.2835, 0.0639, 0.0418, -0.0614, 1585, 101040, 0.5000, 0.5000, -0.5000, 0.0000
5.5410, -0.3825, -0.5001, -9.6792, 0.0019, -0.0067, -0.0113, 0.5584, 0.5400, -0.2837, 0.0638, 0.0430, -0.0610, 1586, 101040, 0.5000, 0.5000, -0.5000, 0.0000
5.5610, -0.3825, -0.5001, -9.6792, 0.0019, -0.0067, -0.0113, 0.5585, 0.5396, -0.2839, 0.0638, 0.0432, -0.0600, 1587, 101040, 0.5000, 0.5000, -0.5000, 0.0000
5.5810, -0.3825, -0.5001, -9.6792, 0.0019, -0.0067, -0.0113, 0.5587, 0.5394, -0.2840, 0.0638, 0.0438, -0.0607, 1588, 101040, 0.5000, 0.5000, -0.5000, 0.0000
5.6000, -0.3825, -0.5001, -9.6792, 0.0019, -0.0067, -0.0113, 0.5589, 0.5392, -0.2841, 0.0636, 0.0438, -0.0608, 1589, 101040, 0.5000, 0.5000, -0.5000, 0.0000
5.6210, -0.3825, -0.5001, -9.6792, 0.0019, -0.0067, -0.0113, 0.5591, 0.5391, -0.2845, 0.0635, 0.0441, -0.0600, 1590, 101040, 0.5000, 0.5000, -0.5000, 0.0000
5.6410, -0.3825, -0.5001, -9.6792, 0.0019, -0.0067, -0.0113, 0.5592, 0.5387, -0.2848, 0.0632, 0.0437, -0.0594, 1591, 101040, 0.5000, 0.5000, -0.5000, 0.0000
5.6600, -0.3825, -0.5001, -9.6792, 0.0019, -0.0067, -0.0113, 0.5593, 0.5384, -0.2851, 0.0627, 0.0428, -0.0586, 1592, 101040, 0.5000, 0.5000, -0.5000, 0.0000
5.6800, -0.3825, -0.5001, -9.6792, 0.0019, -0.0067, -0.0113, 0.5594, 0.5384, -0.2854, 0.0628, 0.0423, -0.0584, 1593, 101040, 0.5000, 0.5000, -0.5000, 0.0000
5.7000, -0.3825, -0.5001, -9.6792, 0.0019, -0.0067, -0.0113, 0.5594, 0.5381, -0.2857, 0.0624, 0.0417, -0.0574, 1594, 101040, 0.5000, 0.5000, -0.5000, 0.0000
5.7210, -0.3825, -0.5001, -9.6792, 0.0019, -0.0067, -0.0113, 0.5594, 0.5377, -0.2861, 0.0622, 0.0419, -0.0571, 1595, 101040, 0.5000, 0.5000, -0.5000, 0.0000
5.7410, -0.3825, -0.5001, -9.6792, 0.0019, -0.0067, -0.0113, 0.5594, 0.5376, -0.2863, 0.0619, 0.0431, -0.0571, 1596, 101040, 0.5000, 0.5000, -0.5000, 0.0000
5.7610, -0.3825, -0.5001, -9.6792, 0.0019, -0.0067, -0.0113, 0.5595, 0.5375, -0.2865, 0.0621, 0.0430, -0.0572, 1597, 101040, 0.5000, 0.5000, -0.5000, 0.0000
5.7810, -0.3825, -0.5001, -9.6792, 0.0019, -0.0067, -0.0113, 0.5594, 0.5371, -0.2868, 0.0618, 0.0434, -0.0573, 1598, 101040, 0.5000, 0.5000, -0.5000, 0.0000
5.8000, -0.3825, -0.5001, -9.6792, 0.0019, -0.0067, -0.0113, 0.5594, 0.5368, -0.2870, 0.0616, 0.0427, -0.0564, 1599, 101040, 0.5000, 0.5000, -0.5000, 0.0000
5.8200, -0.3825, -0.5001, -9.6792, 0.0019, -0.0067, -0.0113, 0.5593, 0.5369, -0.2871, 0.0616, 0.0430, -0.0559, 1600, 101040, 0.5000, 0.5000, -0.5000, 0.0000
5.8400, -0.3825, -0.5001, -9.6792, 0.0019, -0.0067, -0.0113, 0.5593, 0.5366, -0.2874, 0.0613, 0.0424, -0.0551, 1601, 101040, 0.5000, 0.5000, -0.5000, 0.0000
5.8600, -0.3825, -0.5001, -9.6792, 0.0019, -0.0067, -0.0113, 0.5592, 0.5363, -0.2876, 0.0610, 0.0419, -0.0547, 1602, 101040, 0.5000, 0.5000, -0.5000, 0.0000
5.8800, -0.3825, -0.5001, -9.6792, 0.0019, -0.0067, -0.0113, 0.5591, 0.5361, -0.2877, 0.0609, 0.0412, -0.0553, 1603, 101040, 0.5000, 0.5000, -0.5000, 0.0000
5.9000, -0.3825, -0.5001, -9.6792, 0.0019, -0.0067, -0.0113, 0.5590, 0.5361, -0.2877, 0.0608, 0.0405, -0.0558, 1604, 101040, 0.5000, 0.5000, -0.5000, 0.0000
5.9200, -0.3825, -0.5001, -9.6792, 0.0019, -0.0067, -0.0113, 0.5589, 0.5359, -0.2877, 0.0607, 0.0399, -0.0568, 1605, 101040, 0.5000, 0.5000, -0.5000, 0.0000
5.9400, -0.3825, -0.5001, -9.6792, 0.0019, -0.0067, -0.0113, 0.5587, 0.5356, -0.2878, 0.0604, 0.0392, -0.0570, 1606, 101040, 0.5000, 0.5000, -0.5000, 0.0000
5.9600, -0.3825, -0.5001, -9.6792, 0.0019, -0.0067, -0.0113, 0.5588, 0.5356, -0.2878, 0.0605, 0.0390, -0.0572, 1607, 101040, 0.5000, 0.5000, -0.5000, 0.0000
5.9810, -0.3825, -0.5001, -9.6792, 0.0019, -0.0067, -0.0113, 0.5586, 0.5355, -0.2878, 0.0602, 0.0389, -0.0574, 1608, 101040, 0.5000, 0.5000, -0.5000, 0.0000
6.0000, -0.3825, -0.5001, -9.6792, 0.0019, -0.0067, -0.0113, 0.5584, 0.5353, -0.2879, 0.0604, 0.0379, -0.0572, 1609, 101040, 0.5000, 0.5000, -0.5000, 0.0000
6.0210, -0.3825, -0.5001, -9.6792, 0.0019, -0.0067, -0.0113, 0.5584, 0.5353, -0.2878, 0.0603, 0.0374, -0.0559, 1610, 101040, 0.5000, 0.5000, -0.5000, 0.0000
6.0410, -0.3825, -0.5001, -9.6792, 0.0019, -0.0067, -0.0113, 0.5583, 0.5354, -0.2879, 0.0603, 0.0366, -0.0548, 1611, 101040, 0.5000, 0.5000, -0.5000, 0.0000
6.0610, -0.3825, -0.5001, -9.6792, 0.0019, -0.0067, -0.0113, 0.5581, 0.5352, -0.2878, 0.0601, 0.0357, -0.0546, 1612, 101040, 0.5000, 0.5000, -0.5000, 0.0000
6.0810, -0.3825, -0.5001, -9.6792, 0.0019, -0.0067, -0.0113, 0.5580, 0.5351, -0.2879, 0.0598, 0.0357, -0.0539, 1613, 101040, 0.5000, 0.5000, -0.5000, 0.0000
6.1000, -0.3825, -0.5001, -9.6792, 0.0019, -0.0067, -0.0113, 0.5579, 0.5351, -0.2878, 0.0598, 0.0355, -0.0540, 1614, 101040, 0.5000, 0.5000, -0.5000, 0.0000
6.1210, -0.3825, -0.5001, -9.6792, 0.0019, -0.0067, -0.0113, 0.5578, 0.5352, -0.2877, 0.0596, 0.0348, -0.0537, 1615, 101040, 0.5000, 0.5000, -0.5000, 0.0000
6.1410, -0.3825, -0.5001, -9.6792, 0.0019, -0.0067, -0.0113, 0.5577, 0.5351, -0.2878, 0.0597, 0.0345, -0.0538, 1616, 101040, 0.5000, 0.5000, -0.5000, 0.0000
6.1610, -0.3825, -0.5001, -9.6792, 0.0019, -0.0067, -0.0113, 0.5577, 0.5351, -0.2877, 0.0597, 0.0342, -0.0539, 1617, 101040, 0.5000, 0.5000, -0.5000, 0.0000
6.1810, -0.3825, -0.5001, -9.6792, 0.0019, -0.0067, -0.0113, 0.5577, 0.5352, -0.2877, 0.0594, 0.0334, -0.0535, 1618, 101040, 0.5000, 0.5000, -0.5000, 0.0000
6.2000, -0.3825, -0.5001, -9.6792, 0.0019, -0.0067, -0.0113, 0.5576, 0.5352, -0.2878, 0.0593, 0.0339, -0.0539, 1619, 101040, 0.5000, 0.5000, -0.5000, 0.0000
6.2310, -0.3825, -0.5001, -9.6792, 0.0019, -0.0067, -0.0113, 0.5576, 0.5353, -0.2878, 0.0591, 0.0332, -0.0539, 1620, 101040, 0.5000, 0.5000, -0.5000, 0.0000
6.2410, -0.3825, -0.5001, -9.6792, 0.0019, -0.0067, -0.0113, 0.5577, 0.5352, -0.2879, 0.0592, 0.0332, -0.0534, 1621, 101040, 0.5000, 0.5000, -0.5000, 0.0000
6.2610, -0.3825, -0.5001, -9.6792, 0.0019, -0.0067, -0.0113, 0.5576, 0.5355, -0.2880, 0.0591, 0.0336, -0.0532, 1622, 101040, 0.5000, 0.5000, -0.5000, 0.0000
6.2810, -0.3825, -0.5001, -9.6792, 0.0019, -0.0067, -0.0113, 0.5576, 0.5356, -0.2880, 0.0592, 0.0346, -0.0529, 1623, 101040, 0.5000, 0.5000, -0.5000, 0.0000
6.3110, -0.3825, -0.5001, -9.6792, 0.0019, -0.0067, -0.0113, 0.5577, 0.5357, -0.2881, 0.0593, 0.0357, -0.0530, 1624, 101040, 0.5000, 0.5000, -0.5000, 0.0000
6.3210, -0.3825, -0.5001, -9.6792, 0.0019, -0.0067, -0.0113, 0.5576, 0.5358, -0.2881, 0.0591, 0.0369, -0.0530, 1625, 101040, 0.5000, 0.5000, -0.5000, 0.0000
6.3410, -0.3825, -0.5001, -9.6792, 0.0019, -0.0067, -0.0113, 0.5577, 0.5360, -0.2883, 0.0593, 0.0377, -0.0538, 1626, 101040, 0.5000, 0.5000, -0.5000, 0.0000
6.3610, -0.3825, -0.5001, -9.6792, 0.0019, -0.0067, -0.0113, 0.5578, 0.5362, -0.2883, 0.0593, 0.0380, -0.0548, 1627, 101040, 0.5000, 0.5000, -0.5000, 0.0000
6.3810, -0.3825, -0.5001, -9.6792, 0.0019, -0.0067, -0.0113, 0.5579, 0.5362, -0.2886, 0.0592, 0.0387, -0.0559, 1628, 101040, 0.5000, 0.5000, -0.5000, 0.0000
6.4000, -0.3825, -0.5001, -9.6792, 0.0019, -0.0067, -0.0113, 0.5578, 0.5364, -0.2888, 0.0592, 0.0386, -0.0567, 1629, 101040, 0.5000, 0.5000, -0.5000, 0.0000
6.4310, -0.3825, -0.5001, -9.6792, 0.0019, -0.0067, -0.0113, 0.5580, 0.5366, -0.2889, 0.0591, 0.0388, -0.0572, 1630, 101040, 0.5000, 0.5000, -0.5000, 0.0000
6.4500, -0.3825, -0.5001, -9.6792, 0.0019, -0.0067, -0.0113, 0.5580, 0.5367, -0.2890, 0.0590, 0.0396, -0.0581, 1631, 101040, 0.5000, 0.5000, -0.5000, 0.0000
6.4710, -0.3825, -0.5001, -9.6792, 0.0019, -0.0067, -0.0113, 0.5580, 0.5367, -0.2892, 0.0591, 0.0392, -0.0585, 1632, 101040, 0.5000, 0.5000, -0.5000, 0.0000
6.4810, -0.3825, -0.5001, -9.6792, 0.0019, -0.0067, -0.0113, 0.5581, 0.5369, -0.2892, 0.0590, 0.0389, -0.0593, 1633, 101040, 0.5000, 0.5000, -0.5000, 0.0000
6.5110, -0.3825, -0.5001, -9.6792, 0.0019, -0.0067, -0.0113, 0.5581, 0.5370, -0.2894, 0.0590, 0.0393, -0.0595, 1634, 101040, 0.5000, 0.5000, -0.5000, 0.0000
6.5310, -0.3825, -0.5001, -9.6792, 0.0019, -0.0067, -0.0113, 0.5581, 0.5371, -0.2894, 0.0591, 0.0397, -0.0600, 1635, 101040, 0.5000, 0.5000, -0.5000, 0.0000
6.5500, -0.3825, -0.5001, -9.6792, 0.0019, -0.0067, -0.0113, 0.5581, 0.5372, -0.2894, 0.0594, 0.0399, -0.0598, 1636, 101040, 0.5000, 0.5000, -0.5000, 0.0000
6.5710, -0.3825, -0.5001, -9.6792, 0.0019, -0.0067, -0.0113, 0.5581, 0.5374, -0.2894, 0.0591, 0.0415, -0.0597, 1637, 101040, 0.5000, 0.5000, -0.5000, 0.0000
6.5810, -0.3825, -0.5001, -9.6792, 0.0019, -0.0067, -0.0113, 0.5582, 0.5376, -0.2894, 0.0594, 0.0421, -0.0597, 1638, 101040, 0.5000, 0.5000, -0.5000, 0.0000
6.6110, -0.3825, -0.5001, -9.6792, 0.0019, -0.0067, -0.0113, 0.5581, 0.5376, -0.2894, 0.0593, 0.0412, -0.0596, 1639, 101040, 0.5000, 0.5000, -0.5000, 0.0000
6.6310, -0.3825, -0.5001, -9.6792, 0.0019, -0.0067, -0.0113, 0.5580, 0.5377, -0.2893, 0.0596, 0.0420, -0.0611, 1640, 101040, 0.5000, 0.5000, -0.5000, 0.0000
6.6410, -0.3825, -0.5001, -9.6792, 0.0019, -0.0067, -0.0113, 0.5580, 0.5378, -0.2891, 0.0593, 0.0433, -0.0627, 1641, 101040, 0.5000, 0.5000, -0.5000, 0.0000
6.6610, -0.3825, -0.5001, -9.6792, 0.0019, -0.0067, -0.0113, 0.5580, 0.5379, -0.2891, 0.0594, 0.0431, -0.0626, 1642, 101040, 0.5000, 0.5000, -0.5000, 0.0000
6.6910, -0.3825, -0.5001, -9.6792, 0.0019, -0.0067, -0.0113, 0.5579, 0.5379, -0.2890, 0.0593, 0.0434, -0.0632, 1643, 101040, 0.5000, 0.5000, -0.5000, 0.0000
6.7100, -0.3825, -0.5001, -9.6792, 0.0019, -0.0067, -0.0113, 0.5577, 0.5380, -0.2888, 0.0593, 0.0434, -0.0631, 1644, 101040, 0.5000, 0.5000, -0.5000, 0.0000
6.7310, -0.3825, -0.5001, -9.6792, 0.0019, -0.0067, -0.0113, 0.5577, 0.5382, -0.2888, 0.0594, 0.0428, -0.0628, 1645, 101040, 0.5000, 0.5000, -0.5000, 0.0000
6.7500, -0.3825, -0.5001, -9.6792, 0.0019, -0.0067, -0.0113, 0.5575, 0.5382, -0.2889, 0.0590, 0.0415, -0.0612, 1646, 101040, 0.5000, 0.5000, -0.5000, 0.0000
6.7710, -0.3825, -0.5001, -9.6792, 0.0019, -0.0067, -0.0113, 0.5575, 0.5382, -0.2889, 0.0591, 0.0411, -0.0611, 1647, 101040, 0.5000, 0.5000, -0.5000, 0.0000
6.7910, -0.3825, -0.5001, -9.6792, 0.0019, -0.0067, -0.0113, 0.5573, 0.5384, -0.2888, 0.0589, 0.0406, -0.0610, 1648, 101040, 0.5000, 0.5000, -0.5000, 0.0000
6.8110, -0.3825, -0.5001, -9.6792, 0.0019, -0.0067, -0.0113, 0.5572, 0.5385, -0.2888, 0.0588, 0.0399, -0.0603, 1649, 101040, 0.5000, 0.5000, -0.5000, 0.0000
6.8310, -0.3825, -0.5001, -9.6792, 0.0019, -0.0067, -0.0113, 0.5569, 0.5383, -0.2889, 0.0589, 0.0391, -0.0603, 1650, 101040, 0.5000, 0.5000, -0.5000, 0.0000
6.8500, -0.3825, -0.5001, -9.6792, 0.0019, -0.0067, -0.0113, 0.5568, 0.5384, -0.2888, 0.0584, 0.0382, -0.0608, 1651, 101040, 0.5000, 0.5000, -0.5000, 0.0000
6.8710, -0.3825, -0.5001, -9.6792, 0.0019, -0.0067, -0.0113, 0.5566, 0.5385, -0.2890, 0.0585, 0.0384, -0.0613, 1652, 101040, 0.5000, 0.5000, -0.5000, 0.0000
6.8910, -0.3825, -0.5001, -9.6792, 0.0019, -0.0067, -0.0113, 0.5563, 0.5384, -0.2892, 0.0584, 0.0377, -0.0615, 1653, 101040, 0.5000, 0.5000, -0.5000, 0.0000
6.9110, -0.3825, -0.5001, -9.6792, 0.0019, -0.0067, -0.0113, 0.5561, 0.5384, -0.2893, 0.0583, 0.0374, -0.0605, 1654, 101040, 0.5000, 0.5000, -0.5000, 0.0000
6.9310, -0.3825, -0.5001, -9.6792, 0.0019, -0.0067, -0.0113, 0.5559, 0.5385, -0.2896, 0.0581, 0.0381, -0.0599, 1655, 101040, 0.5000, 0.5000, -0.5000, 0.0000
6.9500, -0.3825, -0.5001, -9.6792, 0.0019, -0.0067, -0.0113, 0.5556, 0.5385, -0.2897, 0.0580, 0.0381, -0.0590, 1656, 101040, 0.5000, 0.5000, -0.5000, 0.0000
6.9710, -0.3825, -0.5001, -9.6792, 0.0019, -0.0067, -0.0113, 0.5554, 0.5385, -0.2901, 0.0583, 0.0381, -0.0585, 1657, 101040, 0.5000, 0.5000, -0.5000, 0.0000
6.9910, -0.3825, -0.5001, -9.6792, 0.0019, -0.0067, -0.0113, 0.5551, 0.5383, -0.2903, 0.0580, 0.0387, -0.0589, 1658, 101040, 0.5000, 0.5000, -0.5000, 0.0000
7.0110, -0.3825, -0.5001, -9.6792, 0.0019, -0.0067, -0.0113, 0.5549, 0.5385, -0.2903, 0.0579, 0.0389, -0.0595, 1659, 101040, 0.5000, 0.5000, -0.5000, 0.0000
7.0310, -0.3825, -0.5001, -9.6792, 0.0019, -0.0067, -0.0113, 0.5546, 0.5384, -0.2907, 0.0578, 0.0386, -0.0599, 1660, 101040, 0.5000, 0.5000, -0.5000, 0.0000
7.0500, -0.3825, -0.5001, -9.6792, 0.0019, -0.0067, -0.0113, 0.5543, 0.5382, -0.2910, 0.0577, 0.0389, -0.0596, 1661, 101040, 0.5000, 0.5000, -0.5000, 0.0000
7.0710, -0.3825, -0.5001, -9.6792, 0.0019, -0.0067, -0.0113, 0.5540, 0.5383, -0.2913, 0.0576, 0.0388, -0.0597, 1662, 101040, 0.5000, 0.5000, -0.5000, 0.0000
7.0910, -0.3825, -0.5001, -9.6792, 0.0019, -0.0067, -0.0113, 0.5537, 0.5383, -0.2916, 0.0572, 0.0377, -0.0595, 1663, 101040, 0.5000, 0.5000, -0.5000, 0.0000
7.1110, -0.3825, -0.5001, -9.6792, 0.0019, -0.0067, -0.0113, 0.5534, 0.5382, -0.2919, 0.0571, 0.0373, -0.0591, 1664, 101040, 0.5000, 0.5000, -0.5000, 0.0000
7.1310, -0.3825, -0.5001, -9.6792, 0.0019, -0.0067, -0.0113, 0.5530, 0.5381, -0.2921, 0.0570, 0.0373, -0.0587, 1665, 101040, 0.5000, 0.5000, -0.5000, 0.0000
7.1500, -0.3825, -0.5001, -9.6792, 0.0019, -0.0067, -0.0113, 0.5529, 0.5382, -0.2923, 0.0569, 0.0370, -0.0587, 1666, 101040, 0.5000, 0.5000, -0.5000, 0.0000
7.1710, -0.3825, -0.5001, -9.6792, 0.0019, -0.0067, -0.0113, 0.5525, 0.5381, -0.2926, 0.0565, 0.0370, -0.0586, 1667, 101040, 0.5000, 0.5000, -0.5000, 0.0000
7.1910, -0.3825, -0.5001, -9.6792, 0.0019, -0.0067, -0.0113, 0.5522, 0.5379, -0.2929, 0.0566, 0.0370, -0.0588, 1668, 101040, 0.5000, 0.5000, -0.5000, 0.0000
7.2110, -0.3825, -0.5001, -9.6792, 0.0019, -0.0067, -0.0113, 0.5519, 0.5380, -0.2930, 0.0566, 0.0374, -0.0591, 1669, 101040, 0.5000, 0.5000, -0.5000, 0.0000
7.2310, -0.3825, -0.5001, -9.6792, 0.0019, -0.0067, -0.0113, 0.5515, 0.5380, -0.2934, 0.0566, 0.0380, -0.0589, 1670, 101040, 0.5000, 0.5000, -0.5000, 0.0000
7.2410, -0.3825, -0.5001, -9.6792, 0.0019, -0.0067, -0.0113, 0.5511, 0.5380, -0.2936, 0.0567, 0.0388, -0.0590, 1671, 101040, 0.5000, 0.5000, -0.5000, 0.0000
7.2610, -0.3825, -0.5001, -9.6792, 0.0019, -0.0067, -0.0113, 0.5508, 0.5378, -0.2938, 0.0567, 0.0387, -0.0599, 1672, 101040, 0.5000, 0.5000, -0.5000, 0.0000
7.2910, -0.3825, -0.5001, -9.6792, 0.0019, -0.0067, -0.0113, 0.5505, 0.5378, -0.2941, 0.0568, 0.0384, -0.0602, 1673, 101040, 0.5000, 0.5000, -0.5000, 0.0000
7.3110, -0.3825, -0.5001, -9.6792, 0.0019, -0.0067, -0.0113, 0.5503, 0.5378, -0.2943, 0.0566, 0.0374, -0.0602, 1674, 101040, 0.5000, 0.5000, -0.5000, 0.0000
7.3210, -0.3825, -0.5001, -9.6792, 0.0019, -0.0067, -0.0113, 0.5500, 0.5377, -0.2945, 0.0563, 0.0369, -0.0603, 1675, 101040, 0.5000, 0.5000, -0.5000, 0.0000
7.3500, -0.3825, -0.5001, -9.6792, 0.0019, -0.0067, -0.0113, 0.5497, 0.5377, -0.2947, 0.0564, 0.0370, -0.0602, 1676, 101040, 0.5000, 0.5000, -0.5000, 0.0000
7.3710, -0.3825, -0.5001, -9.6792, 0.0019, -0.0067, -0.0113, 0.5494, 0.5377, -0.2949, 0.0562, 0.0367, -0.0604, 1677, 101040, 0.5000, 0.5000, -0.5000, 0.0000
7.3810, -0.3825, -0.5001, -9.6792, 0.0019, -0.0067, -0.0113, 0.5492, 0.5377, -0.2950, 0.0563, 0.0373, -0.0603, 1678, 101040, 0.5000, 0.5000, -0.5000, 0.0000
7.4110, -0.3825, -0.5001, -9.6792, 0.0019, -0.0067, -0.0113, 0.5489, 0.5376, -0.2952, 0.0564, 0.0372, -0.0597, 1679, 101040, 0.5000, 0.5000, -0.5000, 0.0000
7.4210, -0.3825, -0.5001, -9.6792, 0.0019, -0.0067, -0.0113, 0.5487, 0.5376, -0.2954, 0.0561, 0.0362, -0.0581, 1680, 101040, 0.5000, 0.5000, -0.5000, 0.0000
7.4500, -0.3825, -0.5001, -9.6792, 0.0019, -0.0067, -0.0113, 0.5485, 0.5376, -0.2957, 0.0563, 0.0355, -0.0573, 1681, 101040, 0.5000, 0.5000, -0.5000, 0.0000
7.4710, -0.3825, -0.5001, -9.6792, 0.0019, -0.0067, -0.0113, 0.5483, 0.5376, -0.2958, 0.0561, 0.0358, -0.0571, 1682, 101040, 0.5000, 0.5000, -0.5000, 0.0000
7.4910, -0.3825, -0.5001, -9.6792, 0.0019, -0.0067, -0.0113, 0.5480, 0.5374, -0.2960, 0.0560, 0.0356, -0.0562, 1683, 101040, 0.5000, 0.5000, -0.5000, 0.0000
7.5110, -0.3825, -0.5001, -9.6792, 0.0019, -0.0067, -0.0113, 0.5478, 0.5374, -0.2962, 0.0558, 0.0354, -0.0565, 1684, 101040, 0.5000, 0.5000, -0.5000, 0.0000
7.5310, -0.3825, -0.5001, -9.6792, 0.0019, -0.0067, -0.0113, 0.5477, 0.5374, -0.2962, 0.0559, 0.0354, -0.0568, 1685, 101040, 0.5000, 0.5000, -0.5000, 0.0000
7.5500, -0.3825, -0.5001, -9.6792, 0.0019, -0.0067, -0.0113, 0.5476, 0.5372, -0.2964, 0.0557, 0.0354, -0.0577, 1686, 101040, 0.5000, 0.5000, -0.5000, 0.0000
7.5700, -0.3825, -0.5001, -9.6792, 0.0019, -0.0067, -0.0113, 0.5473, 0.5370, -0.2965, 0.0555, 0.0355, -0.0580, 1687, 101040, 0.5000, 0.5000, -0.5000, 0.0000
7.5910, -0.3825, -0.5001, -9.6792, 0.0019, -0.0067, -0.0113, 0.5473, 0.5370, -0.2966, 0.0556, 0.0355, -0.0584, 1688, 101040, 0.5000, 0.5000, -0.5000, 0.0000
7.6110, -0.3825, -0.5001, -9.6792, 0.0019, -0.0067, -0.0113, 0.5472, 0.5370, -0.2966, 0.0555, 0.0349, -0.0585, 1689, 101040, 0.5000, 0.5000, -0.5000, 0.0000
7.6310, -0.3825, -0.5001, -9.6792, 0.0019, -0.0067, -0.0113, 0.5470, 0.5369, -0.2967, 0.0553, 0.0349, -0.0574, 1690, 101040, 0.5000, 0.5000, -0.5000, 0.0000
7.6500, -0.3825, -0.5001, -9.6792, 0.0019, -0.0067, -0.0113, 0.5469, 0.5368, -0.2969, 0.0553, 0.0356, -0.0568, 1691, 101040, 0.5000, 0.5000, -0.5000, 0.0000
7.6710, -0.3825, -0.5001, -9.6792, 0.0019, -0.0067, -0.0113, 0.5468, 0.5368, -0.2968, 0.0555, 0.0361, -0.0565, 1692, 101040, 0.5000, 0.5000, -0.5000, 0.0000
7.6910, -0.3825, -0.5001, -9.6792, 0.0019, -0.0067, -0.0113, 0.5467, 0.5368, -0.2970, 0.0554, 0.0371, -0.0562, 1693, 101040, 0.5000, 0.5000, -0.5000, 0.0000
7.7110, -0.3825, -0.5001, -9.6792, 0.0019, -0.0067, -0.0113, 0.5465, 0.5366, -0.2971, 0.0554, 0.0377, -0.0557, 1694, 101040, 0.5000, 0.5000, -0.5000, 0.0000
7.7310, -0.3825, -0.5001, -9.6792, 0.0019, -0.0067, -0.0113, 0.5465, 0.5367, -0.2970, 0.0557, 0.0380, -0.0548, 1695, 101040, 0.5000, 0.5000, -0.5000, 0.0000
7.7500, -0.3825, -0.5001, -9.6792, 0.0019, -0.0067, -0.0113, 0.5464, 0.5368, -0.2971, 0.0557, 0.0388, -0.0547, 1696, 101040, 0.5000, 0.5000, -0.5000, 0.0000
7.7700, -0.3825, -0.5001, -9.6792, 0.0019, -0.0067, -0.0113, 0.5462, 0.5367, -0.2971, 0.0554, 0.0388, -0.0545, 1697, 101040, 0.5000, 0.5000, -0.5000, 0.0000
7.7910, -0.3825, -0.5001, -9.6792, 0.0019, -0.0067, -0.0113, 0.5461, 0.5366, -0.2971, 0.0556, 0.0389, -0.0540, 1698, 101040, 0.5000, 0.5000, -0.5000, 0.0000
7.8110, -0.3825, -0.5001, -9.6792, 0.0019, -0.0067, -0.0113, 0.5460, 0.5367, -0.2971, 0.0557, 0.0394, -0.0542, 1699, 101040, 0.5000, 0.5000, -0.5000, 0.0000
7.8310, -0.3825, -0.5001, -9.6792, 0.0019, -0.0067, -0.0113, 0.5459, 0.5368, -0.2971, 0.0558, 0.0391, -0.0543, 1700, 101040, 0.5000, 0.5000, -0.5000, 0.0000
7.8500, -0.3825, -0.5001, -9.6792, 0.0019, -0.0067, -0.0113, 0.5457, 0.5367, -0.2971, 0.0556, 0.0385, -0.0551, 1701, 101040, 0.5000, 0.5000, -0.5000, 0.0000
7.8710, -0.3825, -0.5001, -9.6792, 0.0019, -0.0067, -0.0113, 0.5457, 0.5367, -0.2971, 0.0558, 0.0385, -0.0556, 1702, 101040, 0.5000, 0.5000, -0.5000, 0.0000
7.8910, -0.3825, -0.5001, -9.6792, 0.0019, -0.0067, -0.0113, 0.5456, 0.5370, -0.2970, 0.0559, 0.0380, -0.0560, 1703, 101040, 0.5000, 0.5000, -0.5000, 0.0000
7.9110, -0.3825, -0.5001, -9.6792, 0.0019, -0.0067, -0.0113, 0.5454, 0.5369, -0.2971, 0.0558, 0.0370, -0.0562, 1704, 101040, 0.5000, 0.5000, -0.5000, 0.0000
7.9310, -0.3825, -0.5001, -9.6792, 0.0019, -0.0067, -0.0113, 0.5452, 0.5370, -0.2970, 0.0559, 0.0367, -0.0555, 1705, 101040, 0.5000, 0.5000, -0.5000, 0.0000
7.9500, -0.3825, -0.5001, -9.6792, 0.0019, -0.0067, -0.0113, 0.5453, 0.5372, -0.2971, 0.0560, 0.0364, -0.0555, 1706, 101040, 0.5000, 0.5000, -0.5000, 0.0000
7.9710, -0.3825, -0.5001, -9.6792, 0.0019, -0.0067, -0.0113, 0.5452, 0.5374, -0.2970, 0.0561, 0.0367, -0.0556, 1707, 101040, 0.5000, 0.5000, -0.5000, 0.0000
7.9910, -0.3825, -0.5001, -9.6792, 0.0019, -0.0067, -0.0113, 0.5450, 0.5374, -0.2971, 0.0561, 0.0369, -0.0559, 1708, 101040, 0.5000, 0.5000, -0.5000, 0.0000
8.0110, -0.3825, -0.5001, -9.6792, 0.0019, -0.0067, -0.0113, 0.5449, 0.5375, -0.2971, 0.0563, 0.0371, -0.0555, 1709, 101040, 0.5000, 0.5000, -0.5000, 0.0000
8.0310, -0.3825, -0.5001, -9.6792, 0.0019, -0.0067, -0.0113, 0.5448, 0.5378, -0.2971, 0.0566, 0.0376, -0.0553, 1710, 101040, 0.5000, 0.5000, -0.5000, 0.0000
8.0500, -0.3825, -0.5001, -9.6792, 0.0019, -0.0067, -0.0113, 0.5446, 0.5380, -0.2971, 0.0566, 0.0377, -0.0547, 1711, 101040, 0.5000, 0.5000, -0.5000, 0.0000
8.0710, -0.3825, -0.5001, -9.6792, 0.0019, -0.0067, -0.0113, 0.5446, 0.5381, -0.2971, 0.0568, 0.0375, -0.0548, 1712, 101040, 0.5000, 0.5000, -0.5000, 0.0000
8.0910, -0.3825, -0.5001, -9.6792, 0.0019, -0.0067, -0.0113, 0.5445, 0.5382, -0.2970, 0.0568, 0.0378, -0.0560, 1713, 101040, 0.5000, 0.5000, -0.5000, 0.0000
8.1110, -0.3825, -0.5001, -9.6792, 0.0019, -0.0067, -0.0113, 0.5443, 0.5383, -0.2970, 0.0570, 0.0376, -0.0567, 1714, 101040, 0.5000, 0.5000, -0.5000, 0.0000
8.1310, -0.3825, -0.5001, -9.6792, 0.0019, -0.0067, -0.0113, 0.5443, 0.5385, -0.2968, 0.0569, 0.0374, -0.0579, 1715, 101040, 0.5000, 0.5000, -0.5000, 0.0000
8.1500, -0.3825, -0.5001, -9.6792, 0.0019, -0.0067, -0.0113, 0.5442, 0.5386, -0.2966, 0.0571, 0.0375, -0.0587, 1716, 101040, 0.5000, 0.5000, -0.5000, 0.0000
8.1710, -0.3825, -0.5001, -9.6792, 0.0019, -0.0067, -0.0113, 0.5441, 0.5388, -0.2964, 0.0573, 0.0369, -0.0599, 1717, 101040, 0.5000, 0.5000, -0.5000, 0.0000
8.1910, -0.3825, -0.5001, -9.6792, 0.0019, -0.0067, -0.0113, 0.5441, 0.5390, -0.2962, 0.0571, 0.0362, -0.0603, 1718, 101040, 0.5000, 0.5000, -0.5000, 0.0000
8.2110, -0.3825, -0.5001, -9.6792, 0.0019, -0.0067, -0.0113, 0.5440, 0.5392, -0.2961, 0.0568, 0.0363, -0.0606, 1719, 101040, 0.5000, 0.5000, -0.5000, 0.0000
8.2310, -0.3825, -0.5001, -9.6792, 0.0019, -0.0067, -0.0113, 0.5441, 0.5394, -0.2960, 0.0568, 0.0356, -0.0612, 1720, 101040, 0.5000, 0.5000, -0.5000, 0.0000
8.2500, -0.3825, -0.5001, -9.6792, 0.0019, -0.0067, -0.0113, 0.5440, 0.5395, -0.2958, 0.0567, 0.0345, -0.0617, 1721, 101040, 0.5000, 0.5000, -0.5000, 0.0000
8.2710, -0.3825, -0.5001, -9.6792, 0.0019, -0.0067, -0.0113, 0.5440, 0.5397, -0.2959, 0.0567, 0.0345, -0.0621, 1722, 101040, 0.5000, 0.5000, -0.5000, 0.0000
8.2910, -0.3825, -0.5001, -9.6792, 0.0019, -0.0067, -0.0113, 0.5440, 0.5398, -0.2958, 0.0567, 0.0344, -0.0619, 1723, 101040, 0.5000, 0.5000, -0.5000, 0.0000
8.3110, -0.3825, -0.5001, -9.6792, 0.0019, -0.0067, -0.0113, 0.5440, 0.5398, -0.2958, 0.0566, 0.0344, -0.0615, 1724, 101040, 0.5000, 0.5000, -0.5000, 0.0000
8.3310, -0.3825, -0.5001, -9.6792, 0.0019, -0.0067, -0.0113, 0.5439, 0.5401, -0.2958, 0.0569, 0.0350, -0.0607, 1725, 101040, 0.5000, 0.5000, -0.5000, 0.0000
8.3510, -0.3825, -0.5001, -9.6792, 0.0019, -0.0067, -0.0113, 0.5439, 0.5402, -0.2957, 0.0569, 0.0346, -0.0594, 1726, 101040, 0.5000, 0.5000, -0.5000, 0.0000
8.3710, -0.3825, -0.5001, -9.6792, 0.0019, -0.0067, -0.0113, 0.5440, 0.5403, -0.2957, 0.0570, 0.0340, -0.0587, 1727, 101040, 0.5000, 0.5000, -0.5000, 0.0000
8.3910, -0.3825, -0.5001, -9.6792, 0.0019, -0.0067, -0.0113, 0.5441, 0.5403, -0.2956, 0.0570, 0.0334, -0.0579, 1728, 101040, 0.5000, 0.5000, -0.5000, 0.0000
8.4110, -0.3825, -0.5001, -9.6792, 0.0019, -0.0067, -0.0113, 0.5443, 0.5405, -0.2953, 0.0573, 0.0328, -0.0579, 1729, 101040, 0.5000, 0.5000, -0.5000, 0.0000
8.4310, -0.3825, -0.5001, -9.6792, 0.0019, -0.0067, -0.0113, 0.5444, 0.5405, -0.2952, 0.0574, 0.0333, -0.0586, 1730, 101040, 0.5000, 0.5000, -0.5000, 0.0000
8.4500, -0.3825, -0.5001, -9.6792, 0.0019, -0.0067, -0.0113, 0.5444, 0.5404, -0.2950, 0.0575, 0.0339, -0.0585, 1731, 101040, 0.5000, 0.5000, -0.5000, 0.0000
8.4710, -0.3825, -0.5001, -9.6792, 0.0019, -0.0067, -0.0113, 0.5446, 0.5406, -0.2949, 0.0577, 0.0341, -0.0578, 1732, 101040, 0.5000, 0.5000, -0.5000, 0.0000
8.4910, -0.3825, -0.5001, -9.6792, 0.0019, -0.0067, -0.0113, 0.5448, 0.5407, -0.2947, 0.0581, 0.0343, -0.0577, 1733, 101040, 0.5000, 0.5000, -0.5000, 0.0000
8.5110, -0.3825, -0.5001, -9.6792, 0.0019, -0.0067, -0.0113, 0.5450, 0.5407, -0.2945, 0.0582, 0.0344, -0.0586, 1734, 101040, 0.5000, 0.5000, -0.5000, 0.0000
8.5310, -0.3825, -0.5001, -9.6792, 0.0019, -0.0067, -0.0113, 0.5451, 0.5407, -0.2943, 0.0581, 0.0341, -0.0595, 1735, 101040, 0.5000, 0.5000, -0.5000, 0.0000
8.5500, -0.3825, -0.5001, -9.6792, 0.0019, -0.0067, -0.0113, 0.5453, 0.5408, -0.2941, 0.0582, 0.0347, -0.0603, 1736, 101040, 0.5000, 0.5000, -0.5000, 0.0000
8.5710, -0.3825, -0.5001, -9.6792, 0.0019, -0.0067, -0.0113, 0.5456, 0.5410, -0.2939, 0.0585, 0.0344, -0.0603, 1737, 101040, 0.5000, 0.5000, -0.5000, 0.0000
8.5910, -0.3825, -0.5001, -9.6792, 0.0019, -0.0067, -0.0113, 0.5457, 0.5408, -0.2938, 0.0586, 0.0344, -0.0600, 1738, 101040, 0.5000, 0.5000, -0.5000, 0.0000
8.6110, -0.3825, -0.5001, -9.6792, 0.0019, -0.0067, -0.0113, 0.5460, 0.5409, -0.2934, 0.0589, 0.0352, -0.0605, 1739, 101040, 0.5000, 0.5000, -0.5000, 0.0000
8.6310, -0.3825, -0.5001, -9.6792, 0.0019, -0.0067, -0.0113, 0.5464, 0.5411, -0.2932, 0.0588, 0.0358, -0.0600, 1740, 101040, 0.5000, 0.5000, -0.5000, 0.0000
8.6500, -0.3825, -0.5001, -9.6792, 0.0019, -0.0067, -0.0113, 0.5466, 0.5411, -0.2931, 0.0589, 0.0365, -0.0607, 1741, 101040, 0.5000, 0.5000, -0.5000, 0.0000
8.6710, -0.3825, -0.5001, -9.6792, 0.0019, -0.0067, -0.0113, 0.5468, 0.5409, -0.2928, 0.0585, 0.0366, -0.0613, 1742, 101040, 0.5000, 0.5000, -0.5000, 0.0000
8.6910, -0.3825, -0.5001, -9.6792, 0.0019, -0.0067, -0.0113, 0.5472, 0.5410, -0.2927, 0.0588, 0.0366, -0.0617, 1743, 101040, 0.5000, 0.5000, -0.5000, 0.0000
8.7110, -0.3825, -0.5001, -9.6792, 0.0019, -0.0067, -0.0113, 0.5475, 0.5411, -0.2926, 0.0588, 0.0368, -0.0613, 1744, 101040, 0.5000, 0.5000, -0.5000, 0.0000
8.7310, -0.3825, -0.5001, -9.6792, 0.0019, -0.0067, -0.0113, 0.5478, 0.5410, -0.2926, 0.0588, 0.0365, -0.0608, 1745, 101040, 0.5000, 0.5000, -0.5000, 0.0000
8.7500, -0.3825, -0.5001, -9.6792, 0.0019, -0.0067, -0.0113, 0.5481, 0.5409, -0.2926, 0.0590, 0.0377, -0.0612, 1746, 101040, 0.5000, 0.5000, -0.5000, 0.0000
8.7700, -0.3825, -0.5001, -9.6792, 0.0019, -0.0067, -0.0113, 0.5484, 0.5411, -0.2926, 0.0592, 0.0388, -0.0604, 1747, 101040, 0.5000, 0.5000, -0.5000, 0.0000
8.7910, -0.3825, -0.5001, -9.6792, 0.0019, -0.0067, -0.0113, 0.5487, 0.5411, -0.2927, 0.0591, 0.0394, -0.0603, 1748, 101040, 0.5000, 0.5000, -0.5000, 0.0000
8.8110, -0.3825, -0.5001, -9.6792, 0.0019, -0.0067, -0.0113, 0.5490, 0.5408, -0.2928, 0.0592, 0.0398, -0.0602, 1749, 101040, 0.5000, 0.5000, -0.5000, 0.0000
8.8310, -0.3825, -0.5001, -9.6792, 0.0019, -0.0067, -0.0113, 0.5493, 0.5409, -0.2927, 0.0593, 0.0413, -0.0604, 1750, 101040, 0.5000, 0.5000, -0.5000, 0.0000
8.8500, -0.3825, -0.5001, -9.6792, 0.0019, -0.0067, -0.0113, 0.5497, 0.5409, -0.2927, 0.0596, 0.0416, -0.0619, 1751, 101040, 0.5000, 0.5000, -0.5000, 0.0000
8.8710, -0.3825, -0.5001, -9.6792, 0.0019, -0.0067, -0.0113, 0.5499, 0.5407, -0.2927, 0.0597, 0.0420, -0.0631, 1752, 101040, 0.5000, 0.5000, -0.5000, 0.0000
8.8900, -0.3825, -0.5001, -9.6792, 0.0019, -0.0067, -0.0113, 0.5502, 0.5405, -0.2929, 0.0597, 0.0424, -0.0638, 1753, 101040, 0.5000, 0.5000, -0.5000, 0.0000
8.9110, -0.3825, -0.5001, -9.6792, 0.0019, -0.0067, -0.0113, 0.5504, 0.5405, -0.2929, 0.0595, 0.0425, -0.0623, 1754, 101040, 0.5000, 0.5000, -0.5000, 0.0000
8.9310, -0.3825, -0.5001, -9.6792, 0.0019, -0.0067, -0.0113, 0.5507, 0.5406, -0.2931, 0.0597, 0.0430, -0.0610, 1755, 101040, 0.5000, 0.5000, -0.5000, 0.0000
8.9500, -0.3825, -0.5001, -9.6792, 0.0019, -0.0067, -0.0113, 0.5508, 0.5403, -0.2934, 0.0596, 0.0430, -0.0592, 1756, 101040, 0.5000, 0.5000, -0.5000, 0.0000
8.9710, -0.3825, -0.5001, -9.6792, 0.0019, -0.0067, -0.0113, 0.5511, 0.5401, -0.2934, 0.0595, 0.0423, -0.0585, 1757, 101040, 0.5000, 0.5000, -0.5000, 0.0000
8.9910, -0.3825, -0.5001, -9.6792, 0.0019, -0.0067, -0.0113, 0.5512, 0.5402, -0.2936, 0.0594, 0.0427, -0.0573, 1758, 101040, 0.5000, 0.5000, -0.5000, 0.0000
9.0110, -0.3825, -0.5001, -9.6792, 0.0019, -0.0067, -0.0113, 0.5513, 0.5401, -0.2937, 0.0597, 0.0418, -0.0565, 1759, 101040, 0.5000, 0.5000, -0.5000, 0.0000
9.0310, -0.3825, -0.5001, -9.6792, 0.0019, -0.0067, -0.0113, 0.5516, 0.5398, -0.2937, 0.0596, 0.0418, -0.0570, 1760, 101040, 0.5000, 0.5000, -0.5000, 0.0000
9.0500, -0.3825, -0.5001, -9.6792, 0.0019, -0.0067, -0.0113, 0.5516, 0.5396, -0.2938, 0.0595, 0.0419, -0.0577, 1761, 101040, 0.5000, 0.5000, -0.5000, 0.0000
9.0710, -0.3825, -0.5001, -9.6792, 0.0019, -0.0067, -0.0113, 0.5518, 0.5396, -0.2938, 0.0595, 0.0421, -0.0586, 1762, 101040, 0.5000, 0.5000, -0.5000, 0.0000
9.0910, -0.3825, -0.5001, -9.6792, 0.0019, -0.0067, -0.0113, 0.5518, 0.5393, -0.2938, 0.0596, 0.0423, -0.0584, 1763, 101040, 0.5000, 0.5000, -0.5000, 0.0000
9.1110, -0.3825, -0.5001, -9.6792, 0.0019, -0.0067, -0.0113, 0.5518, 0.5392, -0.2939, 0.0594, 0.0426, -0.0582, 1764, 101040, 0.5000, 0.5000, -0.5000, 0.0000
9.1310, -0.3825, -0.5001, -9.6792, 0.0019, -0.0067, -0.0113, 0.5520, 0.5391, -0.2939, 0.0593, 0.0419, -0.0581, 1765, 101040, 0.5000, 0.5000, -0.5000, 0.0000
9.1500, -0.3825, -0.5001, -9.6792, 0.0019, -0.0067, -0.0113, 0.5521, 0.5390, -0.2939, 0.0595, 0.0406, -0.0572, 1766, 101040, 0.5000, 0.5000, -0.5000, 0.0000
9.1710, -0.3825, -0.5001, -9.6792, 0.0019, -0.0067, -0.0113, 0.5521, 0.5388, -0.2939, 0.0595, 0.0401, -0.0569, 1767, 101040, 0.5000, 0.5000, -0.5000, 0.0000
9.1910, -0.3825, -0.5001, -9.6792, 0.0019, -0.0067, -0.0113, 0.5521, 0.5387, -0.2939, 0.0597, 0.0397, -0.0562, 1768, 101040, 0.5000, 0.5000, -0.5000, 0.0000
9.2110, -0.3825, -0.5001, -9.6792, 0.0019, -0.0067, -0.0113, 0.5522, 0.5387, -0.2939, 0.0596, 0.0398, -0.0554, 1769, 101040, 0.5000, 0.5000, -0.5000, 0.0000
9.2310, -0.3825, -0.5001, -9.6792, 0.0019, -0.0067, -0.0113, 0.5523, 0.5386, -0.2939, 0.0596, 0.0398, -0.0546, 1770, 101040, 0.5000, 0.5000, -0.5000, 0.0000
9.2500, -0.3825, -0.5001, -9.6792, 0.0019, -0.0067, -0.0113, 0.5522, 0.5385, -0.2938, 0.0597, 0.0403, -0.0538, 1771, 101040, 0.5000, 0.5000, -0.5000, 0.0000
9.2710, -0.3825, -0.5001, -9.6792, 0.0019, -0.0067, -0.0113, 0.5522, 0.5384, -0.2939, 0.0595, 0.0412, -0.0544, 1772, 101040, 0.5000, 0.5000, -0.5000, 0.0000
9.2910, -0.3825, -0.5001, -9.6792, 0.0019, -0.0067, -0.0113, 0.5522, 0.5385, -0.2939, 0.0598, 0.0408, -0.0538, 1773, 101040, 0.5000, 0.5000, -0.5000, 0.0000
9.3110, -0.3825, -0.5001, -9.6792, 0.0019, -0.0067, -0.0113, 0.5523, 0.5385, -0.2938, 0.0600, 0.0407, -0.0546, 1774, 101040, 0.5000, 0.5000, -0.5000, 0.0000
9.3310, -0.3825, -0.5001, -9.6792, 0.0019, -0.0067, -0.0113, 0.5523, 0.5383, -0.2939, 0.0599, 0.0407, -0.0544, 1775, 101040, 0.5000, 0.5000, -0.5000, 0.0000
9.3500, -0.3825, -0.5001, -9.6792, 0.0019, -0.0067, -0.0113, 0.5523, 0.5384, -0.2938, 0.0599, 0.0395, -0.0545, 1776, 101040, 0.5000, 0.5000, -0.5000, 0.0000
9.3710, -0.3825, -0.5001, -9.6792, 0.0019, -0.0067, -0.0113, 0.5523, 0.5386, -0.2938, 0.0602, 0.0388, -0.0543, 1777, 101040, 0.5000, 0.5000, -0.5000, 0.0000
9.3910, -0.3825, -0.5001, -9.6792, 0.0019, -0.0067, -0.0113, 0.5523, 0.5386, -0.2938, 0.0603, 0.0386, -0.0543, 1778, 101040, 0.5000, 0.5000, -0.5000, 0.0000
9.4110, -0.3825, -0.5001, -9.6792, 0.0019, -0.0067, -0.0113, 0.5523, 0.5386, -0.2939, 0.0604, 0.0384, -0.0545, 1779, 101040, 0.5000, 0.5000, -0.5000, 0.0000
9.4310, -0.3825, -0.5001, -9.6792, 0.0019, -0.0067, -0.0113, 0.5524, 0.5386, -0.2938, 0.0603, 0.0379, -0.0545, 1780, 101040, 0.5000, 0.5000, -0.5000, 0.0000
9.4500, -0.3825, -0.5001, -9.6792, 0.0019, -0.0067, -0.0113, 0.5524, 0.5389, -0.2937, 0.0608, 0.0384, -0.0548, 1781, 101040, 0.5000, 0.5000, -0.5000, 0.0000
9.4710, -0.3825, -0.5001, -9.6792, 0.0019, -0.0067, -0.0113, 0.5524, 0.5389, -0.2936, 0.0607, 0.0386, -0.0543, 1782, 101040, 0.5000, 0.5000, -0.5000, 0.0000
9.4910, -0.3825, -0.5001, -9.6792, 0.0019, -0.0067, -0.0113, 0.5523, 0.5391, -0.2934, 0.0609, 0.0392, -0.0541, 1783, 101040, 0.5000, 0.5000, -0.5000, 0.0000
9.5100, -0.3825, -0.5001, -9.6792, 0.0019, -0.0067, -0.0113, 0.5524, 0.5393, -0.2933, 0.0610, 0.0401, -0.0542, 1784, 101040, 0.5000, 0.5000, -0.5000, 0.0000
9.5310, -0.3825, -0.5001, -9.6792, 0.0019, -0.0067, -0.0113, 0.5524, 0.5395, -0.2931, 0.0613, 0.0399, -0.0536, 1785, 101040, 0.5000, 0.5000, -0.5000, 0.0000
9.5500, -0.3825, -0.5001, -9.6792, 0.0019, -0.0067, -0.0113, 0.5523, 0.5397, -0.2930, 0.0614, 0.0401, -0.0526, 1786, 101040, 0.5000, 0.5000, -0.5000, 0.0000
9.5710, -0.3825, -0.5001, -9.6792, 0.0019, -0.0067, -0.0113, 0.5523, 0.5398, -0.2928, 0.0616, 0.0396, -0.0528, 1787, 101040, 0.5000, 0.5000, -0.5000, 0.0000
9.5910, -0.3825, -0.5001, -9.6792, 0.0019, -0.0067, -0.0113, 0.5524, 0.5403, -0.2925, 0.0620, 0.0397, -0.0538, 1788, 101040, 0.5000, 0.5000, -0.5000, 0.0000
9.6110, -0.3825, -0.5001, -9.6792, 0.0019, -0.0067, -0.0113, 0.5523, 0.5403, -0.2924, 0.0622, 0.0399, -0.0549, 1789, 101040, 0.5000, 0.5000, -0.5000, 0.0000
9.6310, -0.3825, -0.5001, -9.6792, 0.0019, -0.0067, -0.0113, 0.5521, 0.5404, -0.2921, 0.0623, 0.0408, -0.0555, 1790, 101040, 0.5000, 0.5000, -0.5000, 0.0000
9.6500, -0.3825, -0.5001, -9.6792, 0.0019, -0.0067, -0.0113, 0.5521, 0.5409, -0.2919, 0.0626, 0.0417, -0.0561, 1791, 101040, 0.5000, 0.5000, -0.5000, 0.0000
9.6710, -0.3825, -0.5001, -9.6792, 0.0019, -0.0067, -0.0113, 0.5520, 0.5411, -0.2917, 0.0629, 0.0428, -0.0563, 1792, 101040, 0.5000, 0.5000, -0.5000, 0.0000
9.6910, -0.3825, -0.5001, -9.6792, 0.0019, -0.0067, -0.0113, 0.5519, 0.5414, -0.2916, 0.0631, 0.0436, -0.0571, 1793, 101040, 0.5000, 0.5000, -0.5000, 0.0000
9.7110, -0.3825, -0.5001, -9.6792, 0.0019, -0.0067, -0.0113, 0.5518, 0.5415, -0.2914, 0.0630, 0.0438, -0.0570, 1794, 101040, 0.5000, 0.5000, -0.5000, 0.0000
9.7310, -0.3825, -0.5001, -9.6792, 0.0019, -0.0067, -0.0113, 0.5517, 0.5420, -0.2912, 0.0631, 0.0449, -0.0577, 1795, 101040, 0.5000, 0.5000, -0.5000, 0.0000
9.7500, -0.3825, -0.5001, -9.6792, 0.0019, -0.0067, -0.0113, 0.5515, 0.5423, -0.2909, 0.0632, 0.0456, -0.0577, 1796, 101040, 0.5000, 0.5000, -0.5000, 0.0000
9.7710, -0.3825, -0.5001, -9.6792, 0.0019, -0.0067, -0.0113, 0.5512, 0.5423, -0.2908, 0.0633, 0.0464, -0.0583, 1797, 101040, 0.5000, 0.5000, -0.5000, 0.0000
9.7910, -0.3825, -0.5001, -9.6792, 0.0019, -0.0067, -0.0113, 0.5510, 0.5427, -0.2904, 0.0633, 0.0477, -0.0584, 1798, 101040, 0.5000, 0.5000, -0.5000, 0.0000
9.8110, -0.3825, -0.5001, -9.6792, 0.0019, -0.0067, -0.0113, 0.5507, 0.5431, -0.2901, 0.0634, 0.0486, -0.0573, 1799, 101040, 0.5000, 0.5000, -0.5000, 0.0000
9.8310, -0.3825, -0.5001, -9.6792, 0.0019, -0.0067, -0.0113, 0.5503, 0.5433, -0.2898, 0.0636, 0.0492, -0.0562, 1800, 101040, 0.5000, 0.5000, -0.5000, 0.0000
9.8500, -0.3825, -0.5001, -9.6792, 0.0019, -0.0067, -0.0113, 0.5498, 0.5435, -0.2895, 0.0636, 0.0482, -0.0553, 1801, 101040, 0.5000, 0.5000, -0.5000, 0.0000
9.8700, -0.3825, -0.5001, -9.6792, 0.0019, -0.0067, -0.0113, 0.5496, 0.5438, -0.2890, 0.0636, 0.0472, -0.0556, 1802, 101040, 0.5000, 0.5000, -0.5000, 0.0000
9.8910, -0.3825, -0.5001, -9.6792, 0.0019, -0.0067, -0.0113, 0.5492, 0.5441, -0.2886, 0.0639, 0.0462, -0.0559, 1803, 101040, 0.5000, 0.5000, -0.5000, 0.0000
9.9110, -0.3825, -0.5001, -9.6792, 0.0019, -0.0067, -0.0113, 0.5488, 0.5443, -0.2882, 0.0643, 0.0453, -0.0561, 1804, 101040, 0.5000, 0.5000, -0.5000, 0.0000
9.9300, -0.3825, -0.5001, -9.6792, 0.0019, -0.0067, -0.0113, 0.5484, 0.5444, -0.2878, 0.0643, 0.0433, -0.0566, 1805, 101040, 0.5000, 0.5000, -0.5000, 0.0000
9.9500, -0.3825, -0.5001, -9.6792, 0.0019, -0.0067, -0.0113, 0.5480, 0.5447, -0.2873, 0.0647, 0.0416, -0.0570, 1806, 101040, 0.5000, 0.5000, -0.5000, 0.0000
9.9710, -0.3825, -0.5001, -9.6792, 0.0019, -0.0067, -0.0113, 0.5476, 0.5451, -0.2869, 0.0651, 0.0407, -0.0577, 1807, 101040, 0.5000, 0.5000, -0.5000, 0.0000
9.9910, -0.3825, -0.5001, -9.6792, 0.0019, -0.0067, -0.0113, 0.5470, 0.5452, -0.2864, 0.0658, 0.0405, -0.0577, 1808, 101040, 0.5000, 0.5000, -0.5000, 0.0000
10.0110, -0.3825, -0.5001, -9.6792, 0.0019, -0.0067, -0.0113, 0.5464, 0.5456, -0.2859, 0.0669, 0.0410, -0.0574, 1809, 101040, 0.5000, 0.5000, -0.5000, 0.0000
10.0310, -0.3825, -0.5001, -9.6792, 0.0019, -0.0067, -0.0113, 0.5458, 0.5459, -0.2855, 0.0678, 0.0404, -0.0567, 1810, 101040, 0.5000, 0.5000, -0.5000, 0.0000
10.0500, -0.3825, -0.5001, -9.6792, 0.0019, -0.0067, -0.0113, 0.5452, 0.5460, -0.2849, 0.0690, 0.0395, -0.0583, 1811, 101040, 0.5000, 0.5000, -0.5000, 0.0000
10.0710, -0.3825, -0.5001, -9.6792, 0.0019, -0.0067, -0.0113, 0.5445, 0.5459, -0.2843, 0.0700, 0.0393, -0.0601, 1812, 101040, 0.5000, 0.5000, -0.5000, 0.0000
10.0910, -0.3825, -0.5001, -9.6792, 0.0019, -0.0067, -0.0113, 0.5438, 0.5461, -0.2838, 0.0712, 0.0396, -0.0620, 1813, 101040, 0.5000, 0.5000, -0.5000, 0.0000
10.1110, -0.3825, -0.5001, -9.6792, 0.0019, -0.0067, -0.0113, 0.5430, 0.5463, -0.2832, 0.0718, 0.0382, -0.0621, 1814, 101040, 0.5000, 0.5000, -0.5000, 0.0000
10.1310, -0.3825, -0.5001, -9.6792, 0.0019, -0.0067, -0.0113, 0.5422, 0.5463, -0.2828, 0.0727, 0.0366, -0.0627, 1815, 101040, 0.5000, 0.5000, -0.5000, 0.0000
10.1500, -0.3825, -0.5001, -9.6792, 0.0019, -0.0067, -0.0113, 0.5414, 0.5463, -0.2822, 0.0735, 0.0369, -0.0637, 1816, 101040, 0.5000, 0.5000, -0.5000, 0.0000
10.1710, -0.3825, -0.5001, -9.6792, 0.0019, -0.0067, -0.0113, 0.5404, 0.5463, -0.2816, 0.0745, 0.0377, -0.0638, 1817, 101040, 0.5000, 0.5000, -0.5000, 0.0000
10.1910, -0.3825, -0.5001, -9.6792, 0.0019, -0.0067, -0.0113, 0.5395, 0.5464, -0.2809, 0.0759, 0.0402, -0.0635, 1818, 101040, 0.5000, 0.5000, -0.5000, 0.0000
10.2110, -0.3825, -0.5001, -9.6792, 0.0019, -0.0067, -0.0113, 0.5382, 0.5461, -0.2800, 0.0769, 0.0427, -0.0640, 1819, 101040, 0.5000, 0.5000, -0.5000, 0.0000
10.2310, -0.3825, -0.5001, -9.6792, 0.0019, -0.0067, -0.0113, 0.5370, 0.5459, -0.2790, 0.0781, 0.0458, -0.0650, 1820, 101040, 0.5000, 0.5000, -0.5000, 0.0000
10.2500, -0.3825, -0.5001, -9.6792, 0.0019, -0.0067, -0.0113, 0.5358, 0.5457, -0.2781, 0.0789, 0.0463, -0.0645, 1821, 101040, 0.5000, 0.5000, -0.5000, 0.0000
10.2710, -0.3825, -0.5001, -9.6792, 0.0019, -0.0067, -0.0113, 0.5345, 0.5455, -0.2772, 0.0802, 0.0443, -0.0633, 1822, 101040, 0.5000, 0.5000, -0.5000, 0.0000
10.2910, -0.3825, -0.5001, -9.6792, 0.0019, -0.0067, -0.0113, 0.5332, 0.5451, -0.2766, 0.0799, 0.0411, -0.0626, 1823, 101040, 0.5000, 0.5000, -0.5000, 0.0000
10.3110, -0.3825, -0.5001, -9.6792, 0.0019, -0.0067, -0.0113, 0.5320, 0.5450, -0.2760, 0.0802, 0.0351, -0.0617, 1824, 101040, 0.5000, 0.5000, -0.5000, 0.0000
10.3310, -0.3825, -0.5001, -9.6792, 0.0019, -0.0067, -0.0113, 0.5306, 0.5447, -0.2757, 0.0798, 0.0276, -0.0611, 1825, 101040, 0.5000, 0.5000, -0.5000, 0.0000
10.3500, -0.3825, -0.5001, -9.6792, 0.0019, -0.0067, -0.0113, 0.5291, 0.5442, -0.2754, 0.0797, 0.0231, -0.0610, 1826, 101040, 0.5000, 0.5000, -0.5000, 0.0000
10.3710, -0.3825, -0.5001, -9.6792, 0.0019, -0.0067, -0.0113, 0.5274, 0.5438, -0.2749, 0.0798, 0.0235, -0.0615, 1827, 101040, 0.5000, 0.5000, -0.5000, 0.0000
10.3910, -0.3825, -0.5001, -9.6792, 0.0019, -0.0067, -0.0113, 0.5255, 0.5436, -0.2743, 0.0800, 0.0268, -0.0618, 1828, 101040, 0.5000, 0.5000, -0.5000, 0.0000
10.4110, -0.3825, -0.5001, -9.6792, 0.0019, -0.0067, -0.0113, 0.5236, 0.5430, -0.2737, 0.0805, 0.0312, -0.0628, 1829, 101040, 0.5000, 0.5000, -0.5000, 0.0000
10.4310, -0.3825, -0.5001, -9.6792, 0.0019, -0.0067, -0.0113, 0.5215, 0.5423, -0.2730, 0.0807, 0.0335, -0.0646, 1830, 101040, 0.5000, 0.5000, -0.5000, 0.0000
10.4500, -0.3825, -0.5001, -9.6792, 0.0019, -0.0067, -0.0113, 0.5195, 0.5416, -0.2721, 0.0813, 0.0351, -0.0666, 1831, 101040, 0.5000, 0.5000, -0.5000, 0.0000
10.4710, -0.3825, -0.5001, -9.6792, 0.0019, -0.0067, -0.0113, 0.5176, 0.5412, -0.2712, 0.0809, 0.0336, -0.0669, 1832, 101040, 0.5000, 0.5000, -0.5000, 0.0000
10.4910, -0.3825, -0.5001, -9.6792, 0.0019, -0.0067, -0.0113, 0.5157, 0.5406, -0.2703, 0.0808, 0.0327, -0.0668, 1833, 101040, 0.5000, 0.5000, -0.5000, 0.0000
10.5100, -0.3825, -0.5001, -9.6792, 0.0019, -0.0067, -0.0113, 0.5135, 0.5399, -0.2694, 0.0805, 0.0308, -0.0665, 1834, 101040, 0.5000, 0.5000, -0.5000, 0.0000
10.5300, -0.3825, -0.5001, -9.6792, 0.0019, -0.0067, -0.0113, 0.5113, 0.5393, -0.2684, 0.0801, 0.0285, -0.0646, 1835, 101040, 0.5000, 0.5000, -0.5000, 0.0000
10.5500, -0.3825, -0.5001, -9.6792, 0.0019, -0.0067, -0.0113, 0.5091, 0.5387, -0.2678, 0.0796, 0.0288, -0.0622, 1836, 101040, 0.5000, 0.5000, -0.5000, 0.0000
10.5710, -0.3825, -0.5001, -9.6792, 0.0019, -0.0067, -0.0113, 0.5068, 0.5380, -0.2670, 0.0795, 0.0281, -0.0604, 1837, 101040, 0.5000, 0.5000, -0.5000, 0.0000
10.5910, -0.3825, -0.5001, -9.6792, 0.0019, -0.0067, -0.0113, 0.5046, 0.5373, -0.2661, 0.0795, 0.0270, -0.0604, 1838, 101040, 0.5000, 0.5000, -0.5000, 0.0000
10.6110, -0.3825, -0.5001, -9.6792, 0.0019, -0.0067, -0.0113, 0.5023, 0.5365, -0.2655, 0.0786, 0.0252, -0.0600, 1839, 101040, 0.5000, 0.5000, -0.5000, 0.0000
10.6310, -0.3825, -0.5001, -9.6792, 0.0019, -0.0067, -0.0113, 0.5000, 0.5357, -0.2649, 0.0781, 0.0235, -0.0591, 1840, 101040, 0.5000, 0.5000, -0.5000, 0.0000
10.6500, -0.3825, -0.5001, -9.6792, 0.0019, -0.0067, -0.0113, 0.4979, 0.5347, -0.2647, 0.0781, 0.0190, -0.0578, 1841, 101040, 0.5000, 0.5000, -0.5000, 0.0000
10.6710, -0.3825, -0.5001, -9.6792, 0.0019, -0.0067, -0.0113, 0.4958, 0.5339, -0.2644, 0.0771, 0.0149, -0.0564, 1842, 101040, 0.5000, 0.5000, -0.5000, 0.0000
10.6910, -0.3825, -0.5001, -9.6792, 0.0019, -0.0067, -0.0113, 0.4936, 0.5333, -0.2642, 0.0767, 0.0121, -0.0543, 1843, 101040, 0.5000, 0.5000, -0.5000, 0.0000
10.7110, -0.3825, -0.5001, -9.6792, 0.0019, -0.0067, -0.0113, 0.4912, 0.5325, -0.2642, 0.0764, 0.0097, -0.0527, 1844, 101040, 0.5000, 0.5000, -0.5000, 0.0000
10.7310, -0.3825, -0.5001, -9.6792, 0.0019, -0.0067, -0.0113, 0.4890, 0.5316, -0.2643, 0.0757, 0.0077, -0.0524, 1845, 101040, 0.5000, 0.5000, -0.5000, 0.0000
10.7500, -0.3825, -0.5001, -9.6792, 0.0019, -0.0067, -0.0113, 0.4869, 0.5309, -0.2643, 0.0749, 0.0057, -0.0527, 1846, 101040, 0.5000, 0.5000, -0.5000, 0.0000
10.7710, -0.3825, -0.5001, -9.6792, 0.0019, -0.0067, -0.0113, 0.4847, 0.5302, -0.2645, 0.0744, 0.0047, -0.0531, 1847, 101040, 0.5000, 0.5000, -0.5000, 0.0000
10.7910, -0.3825, -0.5001, -9.6792, 0.0019, -0.0067, -0.0113, 0.4825, 0.5292, -0.2646, 0.0737, 0.0024, -0.0530, 1848, 101040, 0.5000, 0.5000, -0.5000, 0.0000
10.8110, -0.3825, -0.5001, -9.6792, 0.0019, -0.0067, -0.0113, 0.4804, 0.5283, -0.2650, 0.0732, 0.0004, -0.0540, 1849, 101040, 0.5000, 0.5000, -0.5000, 0.0000
10.8310, -0.3825, -0.5001, -9.6792, 0.0019, -0.0067, -0.0113, 0.4786, 0.5277, -0.2649, 0.0727, -0.0006, -0.0561, 1850, 101040, 0.5000, 0.5000, -0.5000, 0.0000
10.8500, -0.3825, -0.5001, -9.6792, 0.0019, -0.0067, -0.0113, 0.4768, 0.5269, -0.2652, 0.0718, -0.0024, -0.0575, 1851, 101040, 0.5000, 0.5000, -0.5000, 0.0000
10.8710, -0.3825, -0.5001, -9.6792, 0.0019, -0.0067, -0.0113, 0.4750, 0.5259, -0.2656, 0.0713, -0.0030, -0.0583, 1852, 101040, 0.5000, 0.5000, -0.5000, 0.0000
10.8910, -0.3825, -0.5001, -9.6792, 0.0019, -0.0067, -0.0113, 0.4735, 0.5253, -0.2658, 0.0708, -0.0038, -0.0581, 1853, 101040, 0.5000, 0.5000, -0.5000, 0.0000
10.9110, -0.3825, -0.5001, -9.6792, 0.0019, -0.0067, -0.0113, 0.4721, 0.5248, -0.2664, 0.0705, -0.0052, -0.0567, 1854, 101040, 0.5000, 0.5000, -0.5000, 0.0000
10.9310, -0.3825, -0.5001, -9.6792, 0.0019, -0.0067, -0.0113, 0.4706, 0.5240, -0.2668, 0.0699, -0.0060, -0.0555, 1855, 101040, 0.5000, 0.5000, -0.5000, 0.0000
10.9500, -0.3825, -0.5001, -9.6792, 0.0019, -0.0067, -0.0113, 0.4693, 0.5232, -0.2675, 0.0694, -0.0063, -0.0532, 1856, 101040, 0.5000, 0.5000, -0.5000, 0.0000
10.9710, -0.3825, -0.5001, -9.6792, 0.0019, -0.0067, -0.0113, 0.4679, 0.5227, -0.2682, 0.0693, -0.0044, -0.0510, 1857, 101040, 0.5000, 0.5000, -0.5000, 0.0000
10.9910, -0.3825, -0.5001, -9.6792, 0.0019, -0.0067, -0.0113, 0.4667, 0.5221, -0.2689, 0.0694, -0.0032, -0.0484, 1858, 101040, 0.5000, 0.5000, -0.5000, 0.0000
11.0110, -0.3825, -0.5001, -9.6792, 0.0019, -0.0067, -0.0113, 0.4656, 0.5212, -0.2699, 0.0691, -0.0029, -0.0460, 1859, 101040, 0.5000, 0.5000, -0.5000, 0.0000
11.0310, -0.3825, -0.5001, -9.6792, 0.0019, -0.0067, -0.0113, 0.4646, 0.5204, -0.2709, 0.0695, -0.0025, -0.0446, 1860, 101040, 0.5000, 0.5000, -0.5000, 0.0000
11.0500, -0.3825, -0.5001, -9.6792, 0.0019, -0.0067, -0.0113, 0.4640, 0.5199, -0.2718, 0.0698, -0.0041, -0.0436, 1861, 101040, 0.5000, 0.5000, -0.5000, 0.0000
11.0710, -0.3825, -0.5001, -9.6792, 0.0019, -0.0067, -0.0113, 0.4638, 0.5194, -0.2729, 0.0703, -0.0099, -0.0398, 1862, 101040, 0.5000, 0.5000, -0.5000, 0.0000
11.0910, -0.3825, -0.5001, -9.6792, 0.0019, -0.0067, -0.0113, 0.4636, 0.5188, -0.2738, 0.0707, -0.0140, -0.0370, 1863, 101040, 0.5000, 0.5000, -0.5000, 0.0000
11.1110, -0.3825, -0.5001, -9.6792, 0.0019, -0.0067, -0.0113, 0.4634, 0.5185, -0.2746, 0.0711, -0.0145, -0.0353, 1864, 101040, 0.5000, 0.5000, -0.5000, 0.0000
11.1310, -0.3825, -0.5001, -9.6792, 0.0019, -0.0067, -0.0113, 0.4634, 0.5180, -0.2752, 0.0719, -0.0126, -0.0360, 1865, 101040, 0.5000, 0.5000, -0.5000, 0.0000
11.1500, -0.3825, -0.5001, -9.6792, 0.0019, -0.0067, -0.0113, 0.4635, 0.5176, -0.2756, 0.0722, -0.0100, -0.0373, 1866, 101040, 0.5000, 0.5000, -0.5000, 0.0000
11.1710, -0.3825, -0.5001, -9.6792, 0.0019, -0.0067, -0.0113, 0.4637, 0.5172, -0.2760, 0.0729, -0.0082, -0.0384, 1867, 101040, 0.5000, 0.5000, -0.5000, 0.0000
11.1910, -0.3825, -0.5001, -9.6792, 0.0019, -0.0067, -0.0113, 0.4640, 0.5170, -0.2762, 0.0733, -0.0065, -0.0381, 1868, 101040, 0.5000, 0.5000, -0.5000, 0.0000
11.2110, -0.3825, -0.5001, -9.6792, 0.0019, -0.0067, -0.0113, 0.4647, 0.5171, -0.2762, 0.0740, -0.0055, -0.0371, 1869, 101040, 0.5000, 0.5000, -0.5000, 0.0000
11.2310, -0.3825, -0.5001, -9.6792, 0.0019, -0.0067, -0.0113, 0.4653, 0.5170, -0.2762, 0.0742, -0.0041, -0.0362, 1870, 101040, 0.5000, 0.5000, -0.5000, 0.0000
11.2500, -0.3825, -0.5001, -9.6792, 0.0019, -0.0067, -0.0113, 0.4662, 0.5172, -0.2756, 0.0748, -0.0029, -0.0352, 1871, 101040, 0.5000, 0.5000, -0.5000, 0.0000
11.2710, -0.3825, -0.5001, -9.6792, 0.0019, -0.0067, -0.0113, 0.4671, 0.5174, -0.2751, 0.0753, -0.0012, -0.0343, 1872, 101040, 0.5000, 0.5000, -0.5000, 0.0000
11.2910, -0.3825, -0.5001, -9.6792, 0.0019, -0.0067, -0.0113, 0.4681, 0.5177, -0.2742, 0.0759, 0.0005, -0.0341, 1873, 101040, 0.5000, 0.5000, -0.5000, 0.0000
11.3110, -0.3825, -0.5001, -9.6792, 0.0019, -0.0067, -0.0113, 0.4694, 0.5180, -0.2732, 0.0768, 0.0011, -0.0338, 1874, 101040, 0.5000, 0.5000, -0.5000, 0.0000
11.3310, -0.3825, -0.5001, -9.6792, 0.0019, -0.0067, -0.0113, 0.4707, 0.5187, -0.2719, 0.0777, 0.0010, -0.0336, 1875, 101040, 0.5000, 0.5000, -0.5000, 0.0000
11.3500, -0.3825, -0.5001, -9.6792, 0.0019, -0.0067, -0.0113, 0.4722, 0.5194, -0.2705, 0.0780, 0.0004, -0.0326, 1876, 101040, 0.5000, 0.5000, -0.5000, 0.0000
11.3710, -0.3825, -0.5001, -9.6792, 0.0019, -0.0067, -0.0113, 0.4739, 0.5200, -0.2689, 0.0788, -0.0007, -0.0330, 1877, 101040, 0.5000, 0.5000, -0.5000, 0.0000
11.3910, -0.3825, -0.5001, -9.6792, 0.0019, -0.0067, -0.0113, 0.4757, 0.5207, -0.2671, 0.0795, -0.0015, -0.0329, 1878, 101040, 0.5000, 0.5000, -0.5000, 0.0000
11.4110, -0.3825, -0.5001, -9.6792, 0.0019, -0.0067, -0.0113, 0.4777, 0.5217, -0.2651, 0.0810, -0.0020, -0.0322, 1879, 101040, 0.5000, 0.5000, -0.5000, 0.0000
11.4310, -0.3825, -0.5001, -9.6792, 0.0019, -0.0067, -0.0113, 0.4795, 0.5227, -0.2630, 0.0817, -0.0037, -0.0310, 1880, 101040, 0.5000, 0.5000, -0.5000, 0.0000
11.4500, -0.3825, -0.5001, -9.6792, 0.0019, -0.0067, -0.0113, 0.4816, 0.5239, -0.2605, 0.0829, -0.0052, -0.0305, 1881, 101040, 0.5000, 0.5000, -0.5000, 0.0000
11.4710, -0.3825, -0.5001, -9.6792, 0.0019, -0.0067, -0.0113, 0.4838, 0.5250, -0.2581, 0.0840, -0.0049, -0.0305, 1882, 101040, 0.5000, 0.5000, -0.5000, 0.0000
11.4910, -0.3825, -0.5001, -9.6792, 0.0019, -0.0067, -0.0113, 0.4861, 0.5265, -0.2552, 0.0854, -0.0050, -0.0313, 1883, 101040, 0.5000, 0.5000, -0.5000, 0.0000
11.5110, -0.3825, -0.5001, -9.6792, 0.0019, -0.0067, -0.0113, 0.4884, 0.5279, -0.2523, 0.0862, -0.0048, -0.0318, 1884, 101040, 0.5000, 0.5000, -0.5000, 0.0000
11.5310, -0.3825, -0.5001, -9.6792, 0.0019, -0.0067, -0.0113, 0.4911, 0.5294, -0.2493, 0.0881, -0.0046, -0.0320, 1885, 101040, 0.5000, 0.5000, -0.5000, 0.0000
11.5500, -0.3825, -0.5001, -9.6792, 0.0019, -0.0067, -0.0113, 0.4938, 0.5309, -0.2461, 0.0893, -0.0058, -0.0317, 1886, 101040, 0.5000, 0.5000, -0.5000, 0.0000
11.5710, -0.3825, -0.5001, -9.6792, 0.0019, -0.0067, -0.0113, 0.4968, 0.5329, -0.2425, 0.0917, -0.0042, -0.0317, 1887, 101040, 0.5000, 0.5000, -0.5000, 0.0000
11.5910, -0.3825, -0.5001, -9.6792, 0.0019, -0.0067, -0.0113, 0.4997, 0.5347, -0.2390, 0.0934, -0.0033, -0.0303, 1888, 101040, 0.5000, 0.5000, -0.5000, 0.0000
11.6110, -0.3825, -0.5001, -9.6792, 0.0019, -0.0067, -0.0113, 0.5029, 0.5367, -0.2350, 0.0957, -0.0023, -0.0295, 1889, 101040, 0.5000, 0.5000, -0.5000, 0.0000
11.6310, -0.3825, -0.5001, -9.6792, 0.0019, -0.0067, -0.0113, 0.5060, 0.5387, -0.2310, 0.0976, -0.0003, -0.0288, 1890, 101040, 0.5000, 0.5000, -0.5000, 0.0000
11.6500, -0.3825, -0.5001, -9.6792, 0.0019, -0.0067, -0.0113, 0.5094, 0.5411, -0.2267, 0.0999, 0.0009, -0.0283, 1891, 101040, 0.5000, 0.5000, -0.5000, 0.0000
11.6710, -0.3825, -0.5001, -9.6792, 0.0019, -0.0067, -0.0113, 0.5128, 0.5433, -0.2223, 0.1022, 0.0022, -0.0268, 1892, 101040, 0.5000, 0.5000, -0.5000, 0.0000
11.6910, -0.3825, -0.5001, -9.6792, 0.0019, -0.0067, -0.0113, 0.5161, 0.5456, -0.2173, 0.1052, 0.0102, -0.0284, 1893, 101040, 0.5000, 0.5000, -0.5000, 0.0000
11.7110, -0.3825, -0.5001, -9.6792, 0.0019, -0.0067, -0.0113, 0.5190, 0.5479, -0.2124, 0.1085, 0.0259, -0.0335, 1894, 101040, 0.5000, 0.5000, -0.5000, 0.0000
11.7300, -0.3825, -0.5001, -9.6792, 0.0019, -0.0067, -0.0113, 0.5220, 0.5501, -0.2079, 0.1109, 0.0401, -0.0395, 1895, 101040, 0.5000, 0.5000, -0.5000, 0.0000
11.7500, -0.3825, -0.5001, -9.6792, 0.0019, -0.0067, -0.0113, 0.5249, 0.5526, -0.2035, 0.1142, 0.0517, -0.0467, 1896, 101040, 0.5000, 0.5000, -0.5000, 0.0000
11.7710, -0.3825, -0.5001, -9.6792, 0.0019, -0.0067, -0.0113, 0.5280, 0.5551, -0.1997, 0.1170, 0.0608, -0.0516, 1897, 101040, 0.5000, 0.5000, -0.5000, 0.0000
11.7910, -0.3825, -0.5001, -9.6792, 0.0019, -0.0067, -0.0113, 0.5309, 0.5578, -0.1963, 0.1197, 0.0679, -0.0568, 1898, 101040, 0.5000, 0.5000, -0.5000, 0.0000
11.8110, -0.3825, -0.5001, -9.6792, 0.0019, -0.0067, -0.0113, 0.5337, 0.5605, -0.1936, 0.1217, 0.0723, -0.0601, 1899, 101040, 0.5000, 0.5000, -0.5000, 0.0000
11.8310, -0.3825, -0.5001, -9.6792, 0.0019, -0.0067, -0.0113, 0.5365, 0.5632, -0.1916, 0.1241, 0.0751, -0.0630, 1900, 101040, 0.5000, 0.5000, -0.5000, 0.0000
11.8500, -0.3825, -0.5001, -9.6792, 0.0019, -0.0067, -0.0113, 0.5391, 0.5659, -0.1899, 0.1260, 0.0780, -0.0663, 1901, 101040, 0.5000, 0.5000, -0.5000, 0.0000
11.8710, -0.3825, -0.5001, -9.6792, 0.0019, -0.0067, -0.0113, 0.5415, 0.5688, -0.1888, 0.1279, 0.0806, -0.0695, 1902, 101040, 0.5000, 0.5000, -0.5000, 0.0000
11.8910, -0.3825, -0.5001, -9.6792, 0.0019, -0.0067, -0.0113, 0.5436, 0.5714, -0.1884, 0.1294, 0.0823, -0.0722, 1903, 101040, 0.5000, 0.5000, -0.5000, 0.0000
11.9110, -0.3825, -0.5001, -9.6792, 0.0019, -0.0067, -0.0113, 0.5458, 0.5741, -0.1885, 0.1311, 0.0822, -0.0754, 1904, 101040, 0.5000, 0.5000, -0.5000, 0.0000
11.9310, -0.3825, -0.5001, -9.6792, 0.0019, -0.0067, -0.0113, 0.5477, 0.5767, -0.1890, 0.1316, 0.0829, -0.0785, 1905, 101040, 0.5000, 0.5000, -0.5000, 0.0000
11.9500, -0.3825, -0.5001, -9.6792, 0.0019, -0.0067, -0.0113, 0.5494, 0.5793, -0.1899, 0.1326, 0.0837, -0.0825, 1906, 101040, 0.5000, 0.5000, -0.5000, 0.0000
11.9710, -0.3825, -0.5001, -9.6792, 0.0019, -0.0067, -0.0113, 0.5509, 0.5815, -0.1913, 0.1331, 0.0840, -0.0852, 1907, 101040, 0.5000, 0.5000, -0.5000, 0.0000
11.9910, -0.3825, -0.5001, -9.6792, 0.0019, -0.0067, -0.0113, 0.5522, 0.5840, -0.1928, 0.1339, 0.0843, -0.0882, 1908, 101040, 0.5000, 0.5000, -0.5000, 0.0000
12.0110, -0.3825, -0.5001, -9.6792, 0.0019, -0.0067, -0.0113, 0.5536, 0.5861, -0.1947, 0.1343, 0.0844, -0.0908, 1909, 101040, 0.5000, 0.5000, -0.5000, 0.0000
12.0300, -0.3825, -0.5001, -9.6792, 0.0019, -0.0067, -0.0113, 0.5547, 0.5885, -0.1968, 0.1351, 0.0836, -0.0929, 1910, 101040, 0.5000, 0.5000, -0.5000, 0.0000
12.0500, -0.3825, -0.5001, -9.6792, 0.0019, -0.0067, -0.0113, 0.5557, 0.5903, -0.1992, 0.1344, 0.0823, -0.0956, 1911, 101040, 0.5000, 0.5000, -0.5000, 0.0000
12.0700, -0.3825, -0.5001, -9.6792, 0.0019, -0.0067, -0.0113, 0.5567, 0.5922, -0.2016, 0.1347, 0.0804, -0.0981, 1912, 101040, 0.5000, 0.5000, -0.5000, 0.0000
12.0910, -0.3825, -0.5001, -9.6792, 0.0019, -0.0067, -0.0113, 0.5573, 0.5938, -0.2044, 0.1350, 0.0781, -0.0989, 1913, 101040, 0.5000, 0.5000, -0.5000, 0.0000
12.1110, -0.3825, -0.5001, -9.6792, 0.0019, -0.0067, -0.0113, 0.5578, 0.5956, -0.2071, 0.1341, 0.0752, -0.0998, 1914, 101040, 0.5000, 0.5000, -0.5000, 0.0000
12.1310, -0.3825, -0.5001, -9.6792, 0.0019, -0.0067, -0.0113, 0.5582, 0.5969, -0.2099, 0.1340, 0.0744, -0.1000, 1915, 101040, 0.5000, 0.5000, -0.5000, 0.0000
12.1500, -0.3825, -0.5001, -9.6792, 0.0019, -0.0067, -0.0113, 0.5586, 0.5983, -0.2125, 0.1344, 0.0746, -0.1013, 1916, 101040, 0.5000, 0.5000, -0.5000, 0.0000
12.1710, -0.3825, -0.5001, -9.6792, 0.0019, -0.0067, -0.0113, 0.5587, 0.5993, -0.2153, 0.1342, 0.0753, -0.1014, 1917, 101040, 0.5000, 0.5000, -0.5000, 0.0000
12.1910, -0.3825, -0.5001, -9.6792, 0.0019, -0.0067, -0.0113, 0.5586, 0.6002, -0.2176, 0.1337, 0.0774, -0.1021, 1918, 101040, 0.5000, 0.5000, -0.5000, 0.0000
12.2110, -0.3825, -0.5001, -9.6792, 0.0019, -0.0067, -0.0113, 0.5583, 0.6010, -0.2198, 0.1336, 0.0784, -0.1031, 1919, 101040, 0.5000, 0.5000, -0.5000, 0.0000
12.2310, -0.3825, -0.5001, -9.6792, 0.0019, -0.0067, -0.0113, 0.5580, 0.6016, -0.2218, 0.1334, 0.0793, -0.1030, 1920, 101040, 0.5000, 0.5000, -0.5000, 0.0000
12.2500, -0.3825, -0.5001, -9.6792, 0.0019, -0.0067, -0.0113, 0.5575, 0.6021, -0.2240, 0.1327, 0.0791, -0.1026, 1921, 101040, 0.5000, 0.5000, -0.5000, 0.0000
12.2710, -0.3825, -0.5001, -9.6792, 0.0019, -0.0067, -0.0113, 0.5568, 0.6022, -0.2258, 0.1320, 0.0781, -0.1019, 1922, 101040, 0.5000, 0.5000, -0.5000, 0.0000
12.2910, -0.3825, -0.5001, -9.6792, 0.0019, -0.0067, -0.0113, 0.5560, 0.6025, -0.2277, 0.1312, 0.0765, -0.1014, 1923, 101040, 0.5000, 0.5000, -0.5000, 0.0000
12.3110, -0.3825, -0.5001, -9.6792, 0.0019, -0.0067, -0.0113, 0.5551, 0.6025, -0.2297, 0.1297, 0.0730, -0.1000, 1924, 101040, 0.5000, 0.5000, -0.5000, 0.0000
12.3310, -0.3825, -0.5001, -9.6792, 0.0019, -0.0067, -0.0113, 0.5543, 0.6023, -0.2317, 0.1289, 0.0687, -0.0987, 1925, 101040, 0.5000, 0.5000, -0.5000, 0.0000
12.3500, -0.3825, -0.5001, -9.6792, 0.0019, -0.0067, -0.0113, 0.5533, 0.6019, -0.2338, 0.1277, 0.0650, -0.0965, 1926, 101040, 0.5000, 0.5000, -0.5000, 0.0000
12.3710, -0.3825, -0.5001, -9.6792, 0.0019, -0.0067, -0.0113, 0.5523, 0.6017, -0.2355, 0.1266, 0.0630, -0.0955, 1927, 101040, 0.5000, 0.5000, -0.5000, 0.0000
12.3900, -0.3825, -0.5001, -9.6792, 0.0019, -0.0067, -0.0113, 0.5512, 0.6012, -0.2373, 0.1253, 0.0601, -0.0939, 1928, 101040, 0.5000, 0.5000, -0.5000, 0.0000
12.4110, -0.3825, -0.5001, -9.6792, 0.0019, -0.0067, -0.0113, 0.5499, 0.6004, -0.2392, 0.1237, 0.0558, -0.0928, 1929, 101040, 0.5000, 0.5000, -0.5000, 0.0000
12.4310, -0.3825, -0.5001, -9.6792, 0.0019, -0.0067, -0.0113, 0.5488, 0.5996, -0.2409, 0.1220, 0.0512, -0.0917, 1930, 101040, 0.5000, 0.5000, -0.5000, 0.0000
12.4500, -0.3825, -0.5001, -9.6792, 0.0019, -0.0067, -0.0113, 0.5478, 0.5990, -0.2425, 0.1203, 0.0488, -0.0898, 1931, 101040, 0.5000, 0.5000, -0.5000, 0.0000
12.4710, -0.3825, -0.5001, -9.6792, 0.0019, -0.0067, -0.0113, 0.5466, 0.5981, -0.2441, 0.1188, 0.0472, -0.0874, 1932, 101040, 0.5000, 0.5000, -0.5000, 0.0000
12.4910, -0.3825, -0.5001, -9.6792, 0.0019, -0.0067, -0.0113, 0.5455, 0.5971, -0.2456, 0.1177, 0.0466, -0.0838, 1933, 101040, 0.5000, 0.5000, -0.5000, 0.0000
12.5110, -0.3825, -0.5001, -9.6792, 0.0019, -0.0067, -0.0113, 0.5442, 0.5961, -0.2468, 0.1161, 0.0457, -0.0814, 1934, 101040, 0.5000, 0.5000, -0.5000, 0.0000
12.5310, -0.3825, -0.5001, -9.6792, 0.0019, -0.0067, -0.0113, 0.5431, 0.5952, -0.2479, 0.1149, 0.0447, -0.0795, 1935, 101040, 0.5000, 0.5000, -0.5000, 0.0000
12.5500, -0.3825, -0.5001, -9.6792, 0.0019, -0.0067, -0.0113, 0.5419, 0.5939, -0.2491, 0.1137, 0.0425, -0.0775, 1936, 101040, 0.5000, 0.5000, -0.5000, 0.0000
12.5710, -0.3825, -0.5001, -9.6792, 0.0019, -0.0067, -0.0113, 0.5405, 0.5925, -0.2500, 0.1126, 0.0413, -0.0766, 1937, 101040, 0.5000, 0.5000, -0.5000, 0.0000
12.5910, -0.3825, -0.5001, -9.6792, 0.0019, -0.0067, -0.0113, 0.5390, 0.5912, -0.2508, 0.1117, 0.0413, -0.0742, 1938, 101040, 0.5000, 0.5000, -0.5000, 0.0000
12.6110, -0.3825, -0.5001, -9.6792, 0.0019, -0.0067, -0.0113, 0.5375, 0.5899, -0.2513, 0.1116, 0.0423, -0.0730, 1939, 101040, 0.5000, 0.5000, -0.5000, 0.0000
12.6310, -0.3825, -0.5001, -9.6792, 0.0019, -0.0067, -0.0113, 0.5359, 0.5882, -0.2517, 0.1106, 0.0434, -0.0725, 1940, 101040, 0.5000, 0.5000, -0.5000, 0.0000
12.6500, -0.3825, -0.5001, -9.6792, 0.0019, -0.0067, -0.0113, 0.5343, 0.5867, -0.2520, 0.1105, 0.0445, -0.0718, 1941, 101040, 0.5000, 0.5000, -0.5000, 0.0000
12.6710, -0.3825, -0.5001, -9.6792, 0.0019, -0.0067, -0.0113, 0.5329, 0.5852, -0.2523, 0.1106, 0.0429, -0.0699, 1942, 101040, 0.5000, 0.5000, -0.5000, 0.0000
12.6910, -0.3825, -0.5001, -9.6792, 0.0019, -0.0067, -0.0113, 0.5315, 0.5837, -0.2526, 0.1103, 0.0381, -0.0656, 1943, 101040, 0.5000, 0.5000, -0.5000, 0.0000
12.7110, -0.3825, -0.5001, -9.6792, 0.0019, -0.0067, -0.0113, 0.5305, 0.5821, -0.2532, 0.1098, 0.0312, -0.0599, 1944, 101040, 0.5000, 0.5000, -0.5000, 0.0000
12.7310, -0.3825, -0.5001, -9.6792, 0.0019, -0.0067, -0.0113, 0.5296, 0.5807, -0.2535, 0.1092, 0.0235, -0.0563, 1945, 101040, 0.5000, 0.5000, -0.5000, 0.0000
12.7500, -0.3825, -0.5001, -9.6792, 0.0019, -0.0067, -0.0113, 0.5285, 0.5793, -0.2538, 0.1084, 0.0189, -0.0543, 1946, 101040, 0.5000, 0.5000, -0.5000, 0.0000
12.7710, -0.3825, -0.5001, -9.6792, 0.0019, -0.0067, -0.0113, 0.5273, 0.5778, -0.2541, 0.1082, 0.0179, -0.0533, 1947, 101040, 0.5000, 0.5000, -0.5000, 0.0000
12.7910, -0.3825, -0.5001, -9.6792, 0.0019, -0.0067, -0.0113, 0.5262, 0.5761, -0.2544, 0.1078, 0.0188, -0.0529, 1948, 101040, 0.5000, 0.5000, -0.5000, 0.0000
12.8100, -0.3825, -0.5001, -9.6792, 0.0019, -0.0067, -0.0113, 0.5253, 0.5747, -0.2548, 0.1078, 0.0209, -0.0530, 1949, 101040, 0.5000, 0.5000, -0.5000, 0.0000
12.8300, -0.3825, -0.5001, -9.6792, 0.0019, -0.0067, -0.0113, 0.5242, 0.5734, -0.2551, 0.1074, 0.0215, -0.0530, 1950, 101040, 0.5000, 0.5000, -0.5000, 0.0000
12.8500, -0.3825, -0.5001, -9.6792, 0.0019, -0.0067, -0.0113, 0.5233, 0.5719, -0.2554, 0.1071, 0.0217, -0.0531, 1951, 101040, 0.5000, 0.5000, -0.5000, 0.0000
12.8700, -0.3825, -0.5001, -9.6792, 0.0019, -0.0067, -0.0113, 0.5225, 0.5705, -0.2557, 0.1068, 0.0219, -0.0529, 1952, 101040, 0.5000, 0.5000, -0.5000, 0.0000
12.8900, -0.3825, -0.5001, -9.6792, 0.0019, -0.0067, -0.0113, 0.5217, 0.5693, -0.2557, 0.1068, 0.0233, -0.0537, 1953, 101040, 0.5000, 0.5000, -0.5000, 0.0000
12.9100, -0.3825, -0.5001, -9.6792, 0.0019, -0.0067, -0.0113, 0.5208, 0.5680, -0.2559, 0.1071, 0.0258, -0.0537, 1954, 101040, 0.5000, 0.5000, -0.5000, 0.0000
12.9300, -0.3825, -0.5001, -9.6792, 0.0019, -0.0067, -0.0113, 0.5200, 0.5667, -0.2561, 0.1069, 0.0273, -0.0517, 1955, 101040, 0.5000, 0.5000, -0.5000, 0.0000
12.9500, -0.3825, -0.5001, -9.6792, 0.0019, -0.0067, -0.0113, 0.5192, 0.5656, -0.2563, 0.1070, 0.0271, -0.0499, 1956, 101040, 0.5000, 0.5000, -0.5000, 0.0000
12.9700, -0.3825, -0.5001, -9.6792, 0.0019, -0.0067, -0.0113, 0.5184, 0.5645, -0.2563, 0.1068, 0.0284, -0.0495, 1957, 101040, 0.5000, 0.5000, -0.5000, 0.0000
12.9900, -0.3825, -0.5001, -9.6792, 0.0019, -0.0067, -0.0113, 0.5175, 0.5632, -0.2564, 0.1071, 0.0301, -0.0503, 1958, 101040, 0.5000, 0.5000, -0.5000, 0.0000
13.0100, -0.3825, -0.5001, -9.6792, 0.0019, -0.0067, -0.0113, 0.5164, 0.5619, -0.2564, 0.1074, 0.0328, -0.0503, 1959, 101040, 0.5000, 0.5000, -0.5000, 0.0000
13.0300, -0.3825, -0.5001, -9.6792, 0.0019, -0.0067, -0.0113, 0.5153, 0.5608, -0.2563, 0.1084, 0.0365, -0.0495, 1960, 101040, 0.5000, 0.5000, -0.5000, 0.0000
13.0500, -0.3825, -0.5001, -9.6792, 0.0019, -0.0067, -0.0113, 0.5141, 0.5595, -0.2561, 0.1091, 0.0402, -0.0491, 1961, 101040, 0.5000, 0.5000, -0.5000, 0.0000
13.0700, -0.3825, -0.5001, -9.6792, 0.0019, -0.0067, -0.0113, 0.5129, 0.5583, -0.2559, 0.1099, 0.0443, -0.0499, 1962, 101040, 0.5000, 0.5000, -0.5000, 0.0000
13.0900, -0.3825, -0.5001, -9.6792, 0.0019, -0.0067, -0.0113, 0.5114, 0.5569, -0.2557, 0.1114, 0.0479, -0.0501, 1963, 101040, 0.5000, 0.5000, -0.5000, 0.0000
13.1100, -0.3825, -0.5001, -9.6792, 0.0019, -0.0067, -0.0113, 0.5100, 0.5557, -0.2552, 0.1126, 0.0512, -0.0514, 1964, 101040, 0.5000, 0.5000, -0.5000, 0.0000
13.1300, -0.3825, -0.5001, -9.6792, 0.0019, -0.0067, -0.0113, 0.5086, 0.5543, -0.2549, 0.1140, 0.0527, -0.0510, 1965, 101040, 0.5000, 0.5000, -0.5000, 0.0000
13.1500, -0.3825, -0.5001, -9.6792, 0.0019, -0.0067, -0.0113, 0.5070, 0.5528, -0.2547, 0.1152, 0.0526, -0.0517, 1966, 101040, 0.5000, 0.5000, -0.5000, 0.0000
13.1700, -0.3825, -0.5001, -9.6792, 0.0019, -0.0067, -0.0113, 0.5056, 0.5516, -0.2543, 0.1164, 0.0520, -0.0511, 1967, 101040, 0.5000, 0.5000, -0.5000, 0.0000
13.1900, -0.3825, -0.5001, -9.6792, 0.0019, -0.0067, -0.0113, 0.5042, 0.5502, -0.2541, 0.1179, 0.0512, -0.0517, 1968, 101040, 0.5000, 0.5000, -0.5000, 0.0000
13.2100, -0.3825, -0.5001, -9.6792, 0.0019, -0.0067, -0.0113, 0.5025, 0.5488, -0.2537, 0.1191, 0.0500, -0.0504, 1969, 101040, 0.5000, 0.5000, -0.5000, 0.0000
13.2300, -0.3825, -0.5001, -9.6792, 0.0019, -0.0067, -0.0113, 0.5012, 0.5474, -0.2536, 0.1203, 0.0488, -0.0486, 1970, 101040, 0.5000, 0.5000, -0.5000, 0.0000
13.2500, -0.3825, -0.5001, -9.6792, 0.0019, -0.0067, -0.0113, 0.4995, 0.5461, -0.2532, 0.1219, 0.0477, -0.0481, 1971, 101040, 0.5000, 0.5000, -0.5000, 0.0000
13.2700, -0.3825, -0.5001, -9.6792, 0.0019, -0.0067, -0.0113, 0.4981, 0.5448, -0.2528, 0.1229, 0.0454, -0.0479, 1972, 101040, 0.5000, 0.5000, -0.5000, 0.0000
13.2900, -0.3825, -0.5001, -9.6792, 0.0019, -0.0067, -0.0113, 0.4965, 0.5435, -0.2524, 0.1239, 0.0428, -0.0500, 1973, 101040, 0.5000, 0.5000, -0.5000, 0.0000
13.3100, -0.3825, -0.5001, -9.6792, 0.0019, -0.0067, -0.0113, 0.4952, 0.5421, -0.2519, 0.1251, 0.0398, -0.0514, 1974, 101040, 0.5000, 0.5000, -0.5000, 0.0000
13.3300, -0.3825, -0.5001, -9.6792, 0.0019, -0.0067, -0.0113, 0.4938, 0.5409, -0.2515, 0.1265, 0.0383, -0.0527, 1975, 101040, 0.5000, 0.5000, -0.5000, 0.0000
13.3500, -0.3825, -0.5001, -9.6792, 0.0019, -0.0067, -0.0113, 0.4922, 0.5397, -0.2512, 0.1272, 0.0364, -0.0529, 1976, 101040, 0.5000, 0.5000, -0.5000, 0.0000
13.3700, -0.3825, -0.5001, -9.6792, 0.0019, -0.0067, -0.0113, 0.4908, 0.5386, -0.2508, 0.1285, 0.0357, -0.0532, 1977, 101040, 0.5000, 0.5000, -0.5000, 0.0000
13.3900, -0.3825, -0.5001, -9.6792, 0.0019, -0.0067, -0.0113, 0.4893, 0.5376, -0.2505, 0.1293, 0.0343, -0.0523, 1978, 101040, 0.5000, 0.5000, -0.5000, 0.0000
13.4100, -0.3825, -0.5001, -9.6792, 0.0019, -0.0067, -0.0113, 0.4879, 0.5369, -0.2500, 0.1305, 0.0337, -0.0519, 1979, 101040, 0.5000, 0.5000, -0.5000, 0.0000
13.4300, -0.3825, -0.5001, -9.6792, 0.0019, -0.0067, -0.0113, 0.4868, 0.5361, -0.2502, 0.1311, 0.0269, -0.0443, 1980, 101040, 0.5000, 0.5000, -0.5000, 0.0000
13.4500, -0.3825, -0.5001, -9.6792, 0.0019, -0.0067, -0.0113, 0.4861, 0.5359, -0.2506, 0.1322, 0.0114, -0.0303, 1981, 101040, 0.5000, 0.5000, -0.5000, 0.0000
13.4700, -0.3825, -0.5001, -9.6792, 0.0019, -0.0067, -0.0113, 0.4854, 0.5359, -0.2514, 0.1332, -0.0017, -0.0151, 1982, 101040, 0.5000, 0.5000, -0.5000, 0.0000
13.4900, -0.3825, -0.5001, -9.6792, 0.0019, -0.0067, -0.0113, 0.4844, 0.5361, -0.2524, 0.1346, -0.0082, -0.0010, 1983, 101040, 0.5000, 0.5000, -0.5000, 0.0000
13.5100, -0.3825, -0.5001, -9.6792, 0.0019, -0.0067, -0.0113, 0.4835, 0.5361, -0.2533, 0.1359, -0.0077, 0.0066, 1984, 101040, 0.5000, 0.5000, -0.5000, 0.0000
13.5300, -0.3825, -0.5001, -9.6792, 0.0019, -0.0067, -0.0113, 0.4825, 0.5361, -0.2539, 0.1368, -0.0052, 0.0092, 1985, 101040, 0.5000, 0.5000, -0.5000, 0.0000
13.5500, -0.3825, -0.5001, -9.6792, 0.0019, -0.0067, -0.0113, 0.4818, 0.5366, -0.2544, 0.1376, -0.0032, 0.0069, 1986, 101040, 0.5000, 0.5000, -0.5000, 0.0000
13.5700, -0.3825, -0.5001, -9.6792, 0.0019, -0.0067, -0.0113, 0.4810, 0.5370, -0.2547, 0.1382, -0.0022, 0.0033, 1987, 101040, 0.5000, 0.5000, -0.5000, 0.0000
13.5900, -0.3825, -0.5001, -9.6792, 0.0019, -0.0067, -0.0113, 0.4806, 0.5377, -0.2552, 0.1393, -0.0025, 0.0010, 1988, 101040, 0.5000, 0.5000, -0.5000, 0.0000
13.6100, -0.3825, -0.5001, -9.6792, 0.0019, -0.0067, -0.0113, 0.4802, 0.5389, -0.2556, 0.1401, -0.0028, -0.0013, 1989, 101040, 0.5000, 0.5000, -0.5000, 0.0000
13.6300, -0.3825, -0.5001, -9.6792, 0.0019, -0.0067, -0.0113, 0.4799, 0.5403, -0.2562, 0.1407, -0.0029, -0.0017, 1990, 101040, 0.5000, 0.5000, -0.5000, 0.0000
13.6500, -0.3825, -0.5001, -9.6792, 0.0019, -0.0067, -0.0113, 0.4798, 0.5420, -0.2566, 0.1412, -0.0076, -0.0015, 1991, 101040, 0.5000, 0.5000, -0.5000, 0.0000
13.6700, -0.3825, -0.5001, -9.6792, 0.0019, -0.0067, -0.0113, 0.4798, 0.5437, -0.2569, 0.1418, -0.0093, -0.0039, 1992, 101040, 0.5000, 0.5000, -0.5000, 0.0000
13.6900, -0.3825, -0.5001, -9.6792, 0.0019, -0.0067, -0.0113, 0.4795, 0.5455, -0.2567, 0.1417, -0.0061, -0.0106, 1993, 101040, 0.5000, 0.5000, -0.5000, 0.0000
13.7100, -0.3825, -0.5001, -9.6792, 0.0019, -0.0067, -0.0113, 0.4793, 0.5477, -0.2564, 0.1417, 0.0001, -0.0202, 1994, 101040, 0.5000, 0.5000, -0.5000, 0.0000
13.7300, -0.3825, -0.5001, -9.6792, 0.0019, -0.0067, -0.0113, 0.4791, 0.5494, -0.2563, 0.1424, 0.0065, -0.0269, 1995, 101040, 0.5000, 0.5000, -0.5000, 0.0000
13.7500, -0.3825, -0.5001, -9.6792, 0.0019, -0.0067, -0.0113, 0.4790, 0.5518, -0.2559, 0.1430, 0.0118, -0.0350, 1996, 101040, 0.5000, 0.5000, -0.5000, 0.0000
13.7700, -0.3825, -0.5001, -9.6792, 0.0019, -0.0067, -0.0113, 0.4788, 0.5541, -0.2554, 0.1431, 0.0165, -0.0424, 1997, 101040, 0.5000, 0.5000, -0.5000, 0.0000
13.7900, -0.3825, -0.5001, -9.6792, 0.0019, -0.0067, -0.0113, 0.4791, 0.5566, -0.2551, 0.1434, 0.0197, -0.0492, 1998, 101040, 0.5000, 0.5000, -0.5000, 0.0000
13.8100, -0.3825, -0.5001, -9.6792, 0.0019, -0.0067, -0.0113, 0.4793, 0.5589, -0.2548, 0.1434, 0.0216, -0.0538, 1999, 101040, 0.5000, 0.5000, -0.5000, 0.0000
13.8300, -0.3825, -0.5001, -9.6792, 0.0019, -0.0067, -0.0113, 0.4794, 0.5616, -0.2544, 0.1431, 0.0230, -0.0587, 2000, 101040, 0.5000, 0.5000, -0.5000, 0.0000
13.8500, -0.3825, -0.5001, -9.6792, 0.0019, -0.0067, -0.0113, 0.4795, 0.5643, -0.2540, 0.1425, 0.0233, -0.0633, 2001, 101040, 0.5000, 0.5000, -0.5000, 0.0000
13.8700, -0.3825, -0.5001, -9.6792, 0.0019, -0.0067, -0.0113, 0.4797, 0.5668, -0.2540, 0.1420, 0.0242, -0.0675, 2002, 101040, 0.5000, 0.5000, -0.5000, 0.0000
13.8900, -0.3825, -0.5001, -9.6792, 0.0019, -0.0067, -0.0113, 0.4801, 0.5692, -0.2539, 0.1411, 0.0245, -0.0715, 2003, 101040, 0.5000, 0.5000, -0.5000, 0.0000
13.9100, -0.3825, -0.5001, -9.6792, 0.0019, -0.0067, -0.0113, 0.4802, 0.5718, -0.2537, 0.1407, 0.0265, -0.0767, 2004, 101040, 0.5000, 0.5000, -0.5000, 0.0000
13.9300, -0.3825, -0.5001, -9.6792, 0.0019, -0.0067, -0.0113, 0.4804, 0.5742, -0.2536, 0.1398, 0.0275, -0.0805, 2005, 101040, 0.5000, 0.5000, -0.5000, 0.0000
13.9500, -0.3825, -0.5001, -9.6792, 0.0019, -0.0067, -0.0113, 0.4806, 0.5766, -0.2536, 0.1394, 0.0290, -0.0843, 2006, 101040, 0.5000, 0.5000, -0.5000, 0.0000
13.9700, -0.3825, -0.5001, -9.6792, 0.0019, -0.0067, -0.0113, 0.4806, 0.5787, -0.2536, 0.1386, 0.0298, -0.0856, 2007, 101040, 0.5000, 0.5000, -0.5000, 0.0000
13.9900, -0.3825, -0.5001, -9.6792, 0.0019, -0.0067, -0.0113, 0.4809, 0.5812, -0.2535, 0.1377, 0.0306, -0.0877, 2008, 101040, 0.5000, 0.5000, -0.5000, 0.0000
14.0100, -0.3825, -0.5001, -9.6792, 0.0019, -0.0067, -0.0113, 0.4811, 0.5832, -0.2538, 0.1364, 0.0316, -0.0886, 2009, 101040, 0.5000, 0.5000, -0.5000, 0.0000
14.0300, -0.3825, -0.5001, -9.6792, 0.0019, -0.0067, -0.0113, 0.4813, 0.5853, -0.2538, 0.1352, 0.0315, -0.0909, 2010, 101040, 0.5000, 0.5000, -0.5000, 0.0000
14.0500, -0.3825, -0.5001, -9.6792, 0.0019, -0.0067, -0.0113, 0.4816, 0.5871, -0.2540, 0.1342, 0.0310, -0.0913, 2011, 101040, 0.5000, 0.5000, -0.5000, 0.0000
14.0700, -0.3825, -0.5001, -9.6792, 0.0019, -0.0067, -0.0113, 0.4819, 0.5891, -0.2541, 0.1327, 0.0305, -0.0928, 2012, 101040, 0.5000, 0.5000, -0.5000, 0.0000
14.0900, -0.3825, -0.5001, -9.6792, 0.0019, -0.0067, -0.0113, 0.4823, 0.5906, -0.2543, 0.1310, 0.0297, -0.0939, 2013, 101040, 0.5000, 0.5000, -0.5000, 0.0000
14.1100, -0.3825, -0.5001, -9.6792, 0.0019, -0.0067, -0.0113, 0.4826, 0.5922, -0.2544, 0.1298, 0.0288, -0.0952, 2014, 101040, 0.5000, 0.5000, -0.5000, 0.0000
14.1300, -0.3825, -0.5001, -9.6792, 0.0019, -0.0067, -0.0113, 0.4829, 0.5938, -0.2546, 0.1280, 0.0272, -0.0958, 2015, 101040, 0.5000, 0.5000, -0.5000, 0.0000
14.1500, -0.3825, -0.5001, -9.6792, 0.0019, -0.0067, -0.0113, 0.4834, 0.5951, -0.2550, 0.1267, 0.0269, -0.0964, 2016, 101040, 0.5000, 0.5000, -0.5000, 0.0000
14.1700, -0.3825, -0.5001, -9.6792, 0.0019, -0.0067, -0.0113, 0.4839, 0.5962, -0.2553, 0.1253, 0.0265, -0.0982, 2017, 101040, 0.5000, 0.5000, -0.5000, 0.0000
14.1900, -0.3825, -0.5001, -9.6792, 0.0019, -0.0067, -0.0113, 0.4842, 0.5971, -0.2555, 0.1240, 0.0283, -0.1014, 2018, 101040, 0.5000, 0.5000, -0.5000, 0.0000
14.2100, -0.3825, -0.5001, -9.6792, 0.0019, -0.0067, -0.0113, 0.4847, 0.5980, -0.2557, 0.1225, 0.0300, -0.1033, 2019, 101040, 0.5000, 0.5000, -0.5000, 0.0000
14.2300, -0.3825, -0.5001, -9.6792, 0.0019, -0.0067, -0.0113, 0.4851, 0.5986, -0.2560, 0.1212, 0.0317, -0.1046, 2020, 101040, 0.5000, 0.5000, -0.5000, 0.0000
14.2500, -0.3825, -0.5001, -9.6792, 0.0019, -0.0067, -0.0113, 0.4856, 0.5991, -0.2562, 0.1197, 0.0324, -0.1058, 2021, 101040, 0.5000, 0.5000, -0.5000, 0.0000
14.2700, -0.3825, -0.5001, -9.6792, 0.0019, -0.0067, -0.0113, 0.4862, 0.5993, -0.2565, 0.1181, 0.0331, -0.1052, 2022, 101040, 0.5000, 0.5000, -0.5000, 0.0000
14.2900, -0.3825, -0.5001, -9.6792, 0.0019, -0.0067, -0.0113, 0.4869, 0.5997, -0.2566, 0.1170, 0.0355, -0.1045, 2023, 101040, 0.5000, 0.5000, -0.5000, 0.0000
14.3100, -0.3825, -0.5001, -9.6792, 0.0019, -0.0067, -0.0113, 0.4874, 0.5997, -0.2568, 0.1158, 0.0378, -0.1021, 2024, 101040, 0.5000, 0.5000, -0.5000, 0.0000
14.3300, -0.3825, -0.5001, -9.6792, 0.0019, -0.0067, -0.0113, 0.4881, 0.5997, -0.2568, 0.1142, 0.0408, -0.1008, 2025, 101040, 0.5000, 0.5000, -0.5000, 0.0000
14.3500, -0.3825, -0.5001, -9.6792, 0.0019, -0.0067, -0.0113, 0.4887, 0.5994, -0.2569, 0.1127, 0.0431, -0.0985, 2026, 101040, 0.5000, 0.5000, -0.5000, 0.0000
14.3700, -0.3825, -0.5001, -9.6792, 0.0019, -0.0067, -0.0113, 0.4893, 0.5991, -0.2569, 0.1119, 0.0458, -0.0966, 2027, 101040, 0.5000, 0.5000, -0.5000, 0.0000
14.3900, -0.3825, -0.5001, -9.6792, 0.0019, -0.0067, -0.0113, 0.4897, 0.5985, -0.2569, 0.1103, 0.0479, -0.0950, 2028, 101040, 0.5000, 0.5000, -0.5000, 0.0000
14.4100, -0.3825, -0.5001, -9.6792, 0.0019, -0.0067, -0.0113, 0.4902, 0.5979, -0.2567, 0.1086, 0.0499, -0.0933, 2029, 101040, 0.5000, 0.5000, -0.5000, 0.0000
14.4300, -0.3825, -0.5001, -9.6792, 0.0019, -0.0067, -0.0113, 0.4906, 0.5972, -0.2567, 0.1070, 0.0505, -0.0917, 2030, 101040, 0.5000, 0.5000, -0.5000, 0.0000
14.4500, -0.3825, -0.5001, -9.6792, 0.0019, -0.0067, -0.0113, 0.4909, 0.5964, -0.2568, 0.1050, 0.0498, -0.0890, 2031, 101040, 0.5000, 0.5000, -0.5000, 0.0000
14.4700, -0.3825, -0.5001, -9.6792, 0.0019, -0.0067, -0.0113, 0.4911, 0.5953, -0.2570, 0.1030, 0.0483, -0.0874, 2032, 101040, 0.5000, 0.5000, -0.5000, 0.0000
14.4900, -0.3825, -0.5001, -9.6792, 0.0019, -0.0067, -0.0113, 0.4910, 0.5942, -0.2571, 0.1011, 0.0477, -0.0843, 2033, 101040, 0.5000, 0.5000, -0.5000, 0.0000
14.5100, -0.3825, -0.5001, -9.6792, 0.0019, -0.0067, -0.0113, 0.4911, 0.5933, -0.2572, 0.0996, 0.0480, -0.0811, 2034, 101040, 0.5000, 0.5000, -0.5000, 0.0000
14.5300, -0.3825, -0.5001, -9.6792, 0.0019, -0.0067, -0.0113, 0.4908, 0.5921, -0.2572, 0.0977, 0.0488, -0.0784, 2035, 101040, 0.5000, 0.5000, -0.5000, 0.0000
14.5500, -0.3825, -0.5001, -9.6792, 0.0019, -0.0067, -0.0113, 0.4905, 0.5907, -0.2572, 0.0961, 0.0488, -0.0765, 2036, 101040, 0.5000, 0.5000, -0.5000, 0.0000
14.5700, -0.3825, -0.5001, -9.6792, 0.0019, -0.0067, -0.0113, 0.4900, 0.5894, -0.2573, 0.0945, 0.0491, -0.0752, 2037, 101040, 0.5000, 0.5000, -0.5000, 0.0000
14.5900, -0.3825, -0.5001, -9.6792, 0.0019, -0.0067, -0.0113, 0.4895, 0.5881, -0.2573, 0.0931, 0.0487, -0.0736, 2038, 101040, 0.5000, 0.5000, -0.5000, 0.0000
14.6100, -0.3825, -0.5001, -9.6792, 0.0019, -0.0067, -0.0113, 0.4889, 0.5867, -0.2572, 0.0912, 0.0490, -0.0731, 2039, 101040, 0.5000, 0.5000, -0.5000, 0.0000
14.6300, -0.3825, -0.5001, -9.6792, 0.0019, -0.0067, -0.0113, 0.4882, 0.5851, -0.2573, 0.0895, 0.0490, -0.0732, 2040, 101040, 0.5000, 0.5000, -0.5000, 0.0000
14.6500, -0.3825, -0.5001, -9.6792, 0.0019, -0.0067, -0.0113, 0.4875, 0.5838, -0.2570, 0.0881, 0.0474, -0.0720, 2041, 101040, 0.5000, 0.5000, -0.5000, 0.0000
14.6700, -0.3825, -0.5001, -9.6792, 0.0019, -0.0067, -0.0113, 0.4869, 0.5823, -0.2572, 0.0870, 0.0445, -0.0701, 2042, 101040, 0.5000, 0.5000, -0.5000, 0.0000
14.6900, -0.3825, -0.5001, -9.6792, 0.0019, -0.0067, -0.0113, 0.4862, 0.5808, -0.2573, 0.0854, 0.0419, -0.0662, 2043, 101040, 0.5000, 0.5000, -0.5000, 0.0000
14.7100, -0.3825, -0.5001, -9.6792, 0.0019, -0.0067, -0.0113, 0.4853, 0.5794, -0.2573, 0.0849, 0.0403, -0.0627, 2044, 101040, 0.5000, 0.5000, -0.5000, 0.0000
14.7300, -0.3825, -0.5001, -9.6792, 0.0019, -0.0067, -0.0113, 0.4843, 0.5780, -0.2573, 0.0842, 0.0397, -0.0591, 2045, 101040, 0.5000, 0.5000, -0.5000, 0.0000
14.7500, -0.3825, -0.5001, -9.6792, 0.0019, -0.0067, -0.0113, 0.4835, 0.5763, -0.2576, 0.0839, 0.0387, -0.0564, 2046, 101040, 0.5000, 0.5000, -0.5000, 0.0000
14.7700, -0.3825, -0.5001, -9.6792, 0.0019, -0.0067, -0.0113, 0.4824, 0.5746, -0.2577, 0.0837, 0.0379, -0.0538, 2047, 101040, 0.5000, 0.5000, -0.5000, 0.0000
14.7900, -0.3825, -0.5001, -9.6792, 0.0019, -0.0067, -0.0113, 0.4815, 0.5732, -0.2578, 0.0836, 0.0380, -0.0532, 2048, 101040, 0.5000, 0.5000, -0.5000, 0.0000
14.8100, -0.3825, -0.5001, -9.6792, 0.0019, -0.0067, -0.0113, 0.4805, 0.5713, -0.2578, 0.0839, 0.0369, -0.0541, 2049, 101040, 0.5000, 0.5000, -0.5000, 0.0000
14.8300, -0.3825, -0.5001, -9.6792, 0.0019, -0.0067, -0.0113, 0.4795, 0.5696, -0.2578, 0.0843, 0.0380, -0.0545, 2050, 101040, 0.5000, 0.5000, -0.5000, 0.0000
14.8500, -0.3825, -0.5001, -9.6792, 0.0019, -0.0067, -0.0113, 0.4786, 0.5676, -0.2577, 0.0846, 0.0389, -0.0542, 2051, 101040, 0.5000, 0.5000, -0.5000, 0.0000
14.8700, -0.3825, -0.5001, -9.6792, 0.0019, -0.0067, -0.0113, 0.4776, 0.5661, -0.2573, 0.0853, 0.0394, -0.0536, 2052, 101040, 0.5000, 0.5000, -0.5000, 0.0000
14.8900, -0.3825, -0.5001, -9.6792, 0.0019, -0.0067, -0.0113, 0.4768, 0.5645, -0.2569, 0.0865, 0.0400, -0.0532, 2053, 101040, 0.5000, 0.5000, -0.5000, 0.0000
14.9100, -0.3825, -0.5001, -9.6792, 0.0019, -0.0067, -0.0113, 0.4758, 0.5627, -0.2562, 0.0871, 0.0414, -0.0533, 2054, 101040, 0.5000, 0.5000, -0.5000, 0.0000
14.9300, -0.3825, -0.5001, -9.6792, 0.0019, -0.0067, -0.0113, 0.4750, 0.5611, -0.2552, 0.0880, 0.0421, -0.0535, 2055, 101040, 0.5000, 0.5000, -0.5000, 0.0000
14.9500, -0.3825, -0.5001, -9.6792, 0.0019, -0.0067, -0.0113, 0.4743, 0.5596, -0.2541, 0.0886, 0.0428, -0.0539, 2056, 101040, 0.5000, 0.5000, -0.5000, 0.0000
14.9700, -0.3825, -0.5001, -9.6792, 0.0019, -0.0067, -0.0113, 0.4733, 0.5580, -0.2528, 0.0891, 0.0437, -0.0544, 2057, 101040, 0.5000, 0.5000, -0.5000, 0.0000
14.9900, -0.3825, -0.5001, -9.6792, 0.0019, -0.0067, -0.0113, 0.4726, 0.5564, -0.2517, 0.0901, 0.0439, -0.0551, 2058, 101040, 0.5000, 0.5000, -0.5000, 0.0000
15.0100, -0.3825, -0.5001, -9.6792, 0.0019, -0.0067, -0.0113, 0.4719, 0.5547, -0.2505, 0.0910, 0.0436, -0.0547, 2059, 101040, 0.5000, 0.5000, -0.5000, 0.0000
15.0300, -0.3825, -0.5001, -9.6792, 0.0019, -0.0067, -0.0113, 0.4711, 0.5533, -0.2494, 0.0920, 0.0430, -0.0539, 2060, 101040, 0.5000, 0.5000, -0.5000, 0.0000
15.0500, -0.3825, -0.5001, -9.6792, 0.0019, -0.0067, -0.0113, 0.4703, 0.5517, -0.2484, 0.0932, 0.0405, -0.0527, 2061, 101040, 0.5000, 0.5000, -0.5000, 0.0000
15.0700, -0.3825, -0.5001, -9.6792, 0.0019, -0.0067, -0.0113, 0.4694, 0.5501, -0.2475, 0.0943, 0.0380, -0.0526, 2062, 101040, 0.5000, 0.5000, -0.5000, 0.0000
15.0900, -0.3825, -0.5001, -9.6792, 0.0019, -0.0067, -0.0113, 0.4685, 0.5486, -0.2465, 0.0956, 0.0375, -0.0519, 2063, 101040, 0.5000, 0.5000, -0.5000, 0.0000
15.1100, -0.3825, -0.5001, -9.6792, 0.0019, -0.0067, -0.0113, 0.4677, 0.5471, -0.2458, 0.0965, 0.0370, -0.0510, 2064, 101040, 0.5000, 0.5000, -0.5000, 0.0000
15.1300, -0.3825, -0.5001, -9.6792, 0.0019, -0.0067, -0.0113, 0.4667, 0.5455, -0.2452, 0.0978, 0.0361, -0.0496, 2065, 101040, 0.5000, 0.5000, -0.5000, 0.0000
15.1500, -0.3825, -0.5001, -9.6792, 0.0019, -0.0067, -0.0113, 0.4658, 0.5439, -0.2446, 0.0988, 0.0360, -0.0487, 2066, 101040, 0.5000, 0.5000, -0.5000, 0.0000
15.1700, -0.3825, -0.5001, -9.6792, 0.0019, -0.0067, -0.0113, 0.4650, 0.5427, -0.2439, 0.0998, 0.0358, -0.0489, 2067, 101040, 0.5000, 0.5000, -0.5000, 0.0000
15.1900, -0.3825, -0.5001, -9.6792, 0.0019, -0.0067, -0.0113, 0.4642, 0.5413, -0.2435, 0.1008, 0.0346, -0.0482, 2068, 101040, 0.5000, 0.5000, -0.5000, 0.0000
