time (s), gyro_x (rad/s), gyro_y (rad/s), gyro_z (rad/s), imu_pitch (rad), imu_roll (rad), imu_yaw (rad), counter, x (m), y (m), z (m), yaw (rad), pitch (rad), roll (rad)
0.0000, 0.0056, 0.0099, -0.0003, -0.0145, -0.0007, 0.2606, 22150, -0.0084, -0.0374, -0.0806, -3.0997, 0.0424, -0.0572
0.0200, 0.0156, 0.0188, -0.0046, -0.0141, -0.0012, 0.2613, 22190, -0.0084, -0.0375, -0.0806, -3.0997, 0.0425, -0.0573
0.0400, -0.0043, 0.0075, 0.0121, -0.0140, -0.0014, 0.2616, 22210, -0.0085, -0.0375, -0.0806, -3.0998, 0.0426, -0.0573
0.0600, 0.0137, -0.0083, 0.0078, -0.0140, -0.0016, 0.2616, 22230, -0.0084, -0.0374, -0.0806, -3.0997, 0.0423, -0.0573
0.0800, 0.0137, -0.0083, 0.0078, -0.0140, -0.0016, 0.2616, 22230, -0.0085, -0.0375, -0.0806, -3.0996, 0.0425, -0.0573
0.1000, -0.0164, -0.0043, 0.0142, -0.0143, -0.0019, 0.2616, 22270, -0.0085, -0.0374, -0.0806, -3.0999, 0.0421, -0.0566
0.1200, 0.0108, 0.0030, 0.0030, -0.0147, -0.0019, 0.2616, 22290, -0.0084, -0.0375, -0.0807, -3.0996, 0.0428, -0.0566
0.1400, 0.0040, 0.0005, 0.0048, -0.0147, -0.0019, 0.2616, 22310, -0.0085, -0.0374, -0.0806, -3.0997, 0.0422, -0.0565
0.1600, 0.0040, 0.0005, 0.0048, -0.0147, -0.0019, 0.2616, 22310, -0.0085, -0.0374, -0.0807, -3.0998, 0.0422, -0.0564
0.1800, -0.0210, 0.0083, 0.0070, -0.0145, -0.0014, 0.2615, 22350, -0.0085, -0.0375, -0.0806, -3.0999, 0.0424, -0.0572
0.2000, 0.0094, 0.0099, 0.0032, -0.0145, -0.0014, 0.2616, 22370, -0.0084, -0.0375, -0.0807, -3.0996, 0.0425, -0.0564
0.2200, -0.0027, 0.0043, -0.0046, -0.0143, -0.0012, 0.2620, 22390, -0.0084, -0.0374, -0.0807, -3.0996, 0.0425, -0.0566
0.2400, -0.0027, 0.0043, -0.0046, -0.0143, -0.0012, 0.2620, 22390, -0.0085, -0.0375, -0.0807, -3.0998, 0.0426, -0.0565
0.2600, -0.0056, 0.0126, -0.0078, -0.0145, -0.0016, 0.2620, 22430, -0.0085, -0.0375, -0.0807, -3.0998, 0.0422, -0.0565
0.2800, -0.0078, -0.0191, 0.0134, -0.0145, -0.0019, 0.2620, 22450, -0.0084, -0.0375, -0.0807, -3.0996, 0.0424, -0.0564
0.3000, 0.0040, 0.0008, 0.0005, -0.0143, -0.0021, 0.2620, 22470, -0.0084, -0.0375, -0.0807, -3.0997, 0.0426, -0.0563
0.3200, 0.0040, 0.0008, 0.0005, -0.0143, -0.0021, 0.2620, 22470, -0.0084, -0.0375, -0.0808, -3.0997, 0.0427, -0.0564
0.3400, 0.0046, -0.0054, 0.0121, -0.0143, -0.0024, 0.2620, 22510, -0.0084, -0.0375, -0.0808, -3.0995, 0.0430, -0.0565
0.3600, -0.0089, -0.0094, -0.0145, -0.0141, -0.0026, 0.2620, 22530, -0.0084, -0.0374, -0.0807, -3.0996, 0.0426, -0.0563
0.3800, -0.0048, 0.0059, 0.0019, -0.0140, -0.0028, 0.2618, 22550, -0.0084, -0.0375, -0.0807, -3.0998, 0.0428, -0.0567
0.4000, -0.0048, 0.0059, 0.0019, -0.0140, -0.0028, 0.2618, 22550, -0.0085, -0.0374, -0.0807, -3.0997, 0.0429, -0.0565
0.4200, 0.0062, 0.0011, 0.0030, -0.0136, -0.0031, 0.2611, 22590, -0.0084, -0.0375, -0.0807, -3.0995, 0.0428, -0.0567
0.4400, -0.0075, -0.0151, 0.0177, -0.0133, -0.0033, 0.2609, 22610, -0.0085, -0.0375, -0.0808, -3.0994, 0.0430, -0.0561
0.4600, 0.0016, 0.0035, -0.0008, -0.0134, -0.0037, 0.2606, 22630, -0.0086, -0.0375, -0.0808, -3.0994, 0.0430, -0.0560
0.4800, 0.0016, 0.0035, -0.0008, -0.0134, -0.0037, 0.2606, 22630, -0.0085, -0.0376, -0.0808, -3.0994, 0.0428, -0.0561
0.5000, -0.0097, 0.0005, 0.0043, -0.0138, -0.0033, 0.2597, 22670, -0.0084, -0.0375, -0.0808, -3.0993, 0.0429, -0.0561
0.5200, 0.0078, 0.0000, 0.0016, -0.0141, -0.0035, 0.2594, 22690, -0.0085, -0.0375, -0.0808, -3.0994, 0.0428, -0.0560
0.5400, -0.0078, -0.0022, -0.0156, -0.0143, -0.0038, 0.2590, 22710, -0.0085, -0.0376, -0.0809, -3.0994, 0.0431, -0.0560
0.5600, -0.0078, -0.0022, -0.0156, -0.0143, -0.0038, 0.2590, 22710, -0.0085, -0.0375, -0.0808, -3.0993, 0.0429, -0.0561
0.5800, 0.0108, 0.0062, -0.0019, -0.0143, -0.0038, 0.2588, 22750, -0.0085, -0.0374, -0.0808, -3.0995, 0.0426, -0.0559
0.6000, 0.0040, -0.0089, -0.0073, -0.0145, -0.0037, 0.2590, 22770, -0.0085, -0.0375, -0.0808, -3.0994, 0.0428, -0.0560
0.6200, -0.0027, 0.0116, 0.0043, -0.0145, -0.0035, 0.2590, 22790, -0.0085, -0.0376, -0.0809, -3.0995, 0.0431, -0.0558
0.6400, -0.0027, 0.0116, 0.0043, -0.0145, -0.0035, 0.2590, 22790, -0.0085, -0.0375, -0.0809, -3.0992, 0.0428, -0.0559
0.6600, 0.0124, 0.0019, -0.0027, -0.0141, -0.0037, 0.2583, 22830, -0.0085, -0.0375, -0.0808, -3.0994, 0.0429, -0.0556
0.6800, -0.0008, 0.0124, 0.0005, -0.0140, -0.0038, 0.2580, 22850, -0.0085, -0.0375, -0.0809, -3.0994, 0.0429, -0.0559
0.7000, -0.0019, -0.0113, 0.0156, -0.0136, -0.0040, 0.2576, 22870, -0.0085, -0.0375, -0.0808, -3.0993, 0.0429, -0.0558
0.7200, -0.0019, -0.0113, 0.0156, -0.0136, -0.0040, 0.2576, 22870, -0.0085, -0.0375, -0.0808, -3.0993, 0.0429, -0.0558
0.7400, -0.0038, -0.0024, -0.0102, -0.0133, -0.0045, 0.2571, 22910, -0.0085, -0.0375, -0.0808, -3.0994, 0.0428, -0.0558
0.7600, 0.0046, 0.0089, -0.0067, -0.0134, -0.0045, 0.2567, 22930, -0.0085, -0.0375, -0.0809, -3.0993, 0.0429, -0.0558
0.7800, -0.0110, -0.0003, -0.0008, -0.0136, -0.0042, 0.2564, 22950, -0.0085, -0.0375, -0.0808, -3.0993, 0.0427, -0.0558
0.8000, -0.0110, -0.0003, -0.0008, -0.0136, -0.0042, 0.2564, 22950, -0.0085, -0.0375, -0.0808, -3.0994, 0.0427, -0.0559
0.8200, -0.0040, 0.0003, 0.0013, -0.0134, -0.0038, 0.2557, 22990, -0.0085, -0.0376, -0.0808, -3.0994, 0.0427, -0.0560
0.8400, 0.0089, 0.0040, -0.0022, -0.0138, -0.0038, 0.2553, 23010, -0.0085, -0.0375, -0.0809, -3.0993, 0.0428, -0.0559
0.8600, -0.0016, -0.0134, -0.0065, -0.0138, -0.0037, 0.2550, 23030, -0.0085, -0.0375, -0.0808, -3.0993, 0.0430, -0.0556
0.8800, -0.0016, -0.0134, -0.0065, -0.0138, -0.0037, 0.2550, 23030, -0.0085, -0.0375, -0.0808, -3.0994, 0.0430, -0.0555
0.9000, 0.0097, 0.0038, 0.0164, -0.0138, -0.0033, 0.2543, 23070, -0.0085, -0.0375, -0.0809, -3.0993, 0.0430, -0.0557
0.9200, -0.0035, 0.0022, -0.0175, -0.0141, -0.0033, 0.2538, 23090, -0.0085, -0.0375, -0.0809, -3.0994, 0.0432, -0.0554
0.9400, -0.0011, -0.0040, 0.0065, -0.0143, -0.0037, 0.2534, 23110, -0.0085, -0.0374, -0.0809, -3.0995, 0.0429, -0.0551
0.9600, -0.0011, -0.0040, 0.0065, -0.0143, -0.0037, 0.2534, 23110, -0.0084, -0.0375, -0.0809, -3.0996, 0.0432, -0.0551
0.9800, 0.0000, -0.0059, -0.0046, -0.0141, -0.0031, 0.2527, 23150, -0.0085, -0.0375, -0.0809, -3.0994, 0.0431, -0.0557
1.0000, 0.0108, 0.0027, 0.0030, -0.0143, -0.0030, 0.2524, 23170, -0.0085, -0.0375, -0.0809, -3.0994, 0.0430, -0.0556
1.0200, 0.0108, 0.0005, 0.0011, -0.0145, -0.0028, 0.2520, 23190, -0.0085, -0.0375, -0.0809, -3.0993, 0.0431, -0.0557
1.0400, 0.0108, 0.0005, 0.0011, -0.0145, -0.0028, 0.2520, 23190, -0.0085, -0.0375, -0.0809, -3.0993, 0.0431, -0.0556
1.0600, 0.0013, 0.0013, 0.0000, -0.0148, -0.0028, 0.2520, 23230, -0.0085, -0.0375, -0.0809, -3.0993, 0.0431, -0.0558
1.0800, 0.0040, 0.0000, 0.0040, -0.0150, -0.0028, 0.2520, 23250, -0.0085, -0.0375, -0.0808, -3.0994, 0.0430, -0.0556
1.1000, -0.0094, 0.0137, 0.0105, -0.0152, -0.0024, 0.2520, 23270, -0.0085, -0.0375, -0.0810, -3.0994, 0.0433, -0.0556
1.1200, -0.0094, 0.0137, 0.0105, -0.0152, -0.0024, 0.2520, 23270, -0.0085, -0.0375, -0.0809, -3.0992, 0.0432, -0.0557
1.1400, 0.0000, -0.0089, 0.0083, -0.0157, -0.0021, 0.2520, 23310, -0.0085, -0.0375, -0.0809, -3.0992, 0.0431, -0.0557
1.1600, -0.0056, 0.0003, -0.0140, -0.0155, -0.0023, 0.2520, 23330, -0.0085, -0.0375, -0.0809, -3.0993, 0.0429, -0.0556
1.1800, -0.0056, 0.0003, -0.0140, -0.0155, -0.0023, 0.2520, 23330, -0.0086, -0.0375, -0.0808, -3.0992, 0.0431, -0.0557
1.2000, -0.0056, 0.0003, -0.0140, -0.0155, -0.0023, 0.2520, 23330, -0.0084, -0.0375, -0.0809, -3.0995, 0.0429, -0.0557
1.2200, -0.0046, -0.0035, 0.0035, -0.0150, -0.0028, 0.2520, 23390, -0.0085, -0.0375, -0.0807, -3.0992, 0.0430, -0.0556
1.2400, -0.0032, -0.0065, -0.0099, -0.0148, -0.0030, 0.2520, 23410, -0.0085, -0.0373, -0.0807, -3.0994, 0.0431, -0.0552
1.2600, 0.0051, -0.0059, -0.0019, -0.0147, -0.0030, 0.2520, 23430, -0.0085, -0.0375, -0.0808, -3.0996, 0.0430, -0.0556
1.2800, 0.0051, -0.0059, -0.0019, -0.0147, -0.0030, 0.2520, 23430, -0.0085, -0.0374, -0.0807, -3.0994, 0.0430, -0.0555
1.3000, 0.0005, 0.0204, 0.0231, -0.0145, -0.0031, 0.2520, 23470, -0.0085, -0.0374, -0.0808, -3.0994, 0.0430, -0.0554
1.3200, 0.0070, 0.0027, -0.0113, -0.0147, -0.0033, 0.2522, 23490, -0.0085, -0.0374, -0.0808, -3.0994, 0.0430, -0.0553
1.3400, 0.0013, -0.0024, 0.0075, -0.0148, -0.0033, 0.2522, 23510, -0.0085, -0.0375, -0.0808, -3.0993, 0.0432, -0.0555
1.3600, 0.0013, -0.0024, 0.0075, -0.0148, -0.0033, 0.2522, 23510, -0.0085, -0.0375, -0.0809, -3.0994, 0.0429, -0.0556
1.3800, 0.0030, 0.0073, 0.0105, -0.0154, -0.0030, 0.2524, 23550, -0.0085, -0.0375, -0.0808, -3.0994, 0.0431, -0.0556
1.4000, -0.0110, 0.0081, 0.0124, -0.0155, -0.0028, 0.2524, 23570, -0.0085, -0.0375, -0.0809, -3.0994, 0.0430, -0.0558
1.4200, 0.0000, -0.0073, 0.0059, -0.0157, -0.0026, 0.2524, 23590, -0.0085, -0.0376, -0.0809, -3.0993, 0.0429, -0.0560
1.4400, 0.0000, -0.0073, 0.0059, -0.0157, -0.0026, 0.2524, 23590, -0.0085, -0.0375, -0.0809, -3.0995, 0.0428, -0.0558
1.4600, 0.0013, 0.0043, 0.0118, -0.0161, -0.0023, 0.2525, 23630, -0.0085, -0.0375, -0.0808, -3.0993, 0.0430, -0.0559
1.4800, -0.0005, -0.0078, 0.0022, -0.0164, -0.0021, 0.2529, 23650, -0.0084, -0.0375, -0.0809, -3.0994, 0.0431, -0.0558
1.5000, 0.0075, -0.0008, -0.0070, -0.0166, -0.0017, 0.2532, 23670, -0.0085, -0.0376, -0.0809, -3.0994, 0.0431, -0.0560
1.5200, 0.0075, -0.0008, -0.0070, -0.0166, -0.0017, 0.2532, 23670, -0.0085, -0.0375, -0.0809, -3.0994, 0.0429, -0.0560
1.5400, -0.0035, 0.0005, -0.0078, -0.0162, -0.0021, 0.2532, 23710, -0.0085, -0.0374, -0.0808, -3.0996, 0.0429, -0.0557
1.5600, -0.0099, 0.0051, -0.0134, -0.0164, -0.0023, 0.2534, 23730, -0.0085, -0.0375, -0.0808, -3.0996, 0.0428, -0.0561
1.5800, 0.0022, -0.0008, 0.0000, -0.0164, -0.0019, 0.2534, 23750, -0.0085, -0.0375, -0.0808, -3.0996, 0.0429, -0.0561
1.6000, 0.0022, -0.0008, 0.0000, -0.0164, -0.0019, 0.2534, 23750, -0.0085, -0.0374, -0.0808, -3.0996, 0.0428, -0.0559
1.6200, -0.0035, 0.0167, -0.0027, -0.0164, -0.0016, 0.2536, 23790, -0.0085, -0.0374, -0.0808, -3.0997, 0.0426, -0.0559
1.6400, -0.0032, 0.0043, 0.0013, -0.0162, -0.0017, 0.2539, 23810, -0.0085, -0.0375, -0.0809, -3.0995, 0.0431, -0.0560
1.6600, -0.0094, -0.0038, 0.0005, -0.0159, -0.0019, 0.2543, 23830, -0.0085, -0.0375, -0.0808, -3.0996, 0.0427, -0.0558
1.6800, -0.0094, -0.0038, 0.0005, -0.0159, -0.0019, 0.2543, 23830, -0.0084, -0.0374, -0.0809, -3.0994, 0.0428, -0.0559
1.7000, -0.0032, 0.0059, -0.0102, -0.0157, -0.0017, 0.2550, 23870, -0.0085, -0.0375, -0.0808, -3.0995, 0.0429, -0.0559
1.7200, 0.0043, 0.0056, 0.0113, -0.0155, -0.0016, 0.2553, 23890, -0.0085, -0.0375, -0.0809, -3.0997, 0.0428, -0.0559
1.7400, -0.0008, 0.0099, -0.0121, -0.0154, -0.0017, 0.2557, 23910, -0.0085, -0.0375, -0.0808, -3.0995, 0.0428, -0.0561
1.7600, -0.0008, 0.0099, -0.0121, -0.0154, -0.0017, 0.2557, 23910, -0.0085, -0.0374, -0.0808, -3.0996, 0.0427, -0.0558
1.7800, -0.0056, -0.0046, 0.0048, -0.0150, -0.0017, 0.2564, 23950, -0.0085, -0.0375, -0.0809, -3.0995, 0.0432, -0.0558
1.8000, -0.0019, 0.0011, -0.0094, -0.0148, -0.0019, 0.2567, 23970, -0.0086, -0.0376, -0.0808, -3.0993, 0.0430, -0.0559
1.8200, 0.0134, 0.0121, 0.0032, -0.0148, -0.0021, 0.2567, 23990, -0.0085, -0.0375, -0.0808, -3.0994, 0.0429, -0.0555
1.8400, 0.0134, 0.0121, 0.0032, -0.0148, -0.0021, 0.2567, 23990, -0.0085, -0.0375, -0.0809, -3.0993, 0.0430, -0.0558
1.8600, -0.0030, -0.0030, 0.0011, -0.0150, -0.0024, 0.2567, 24030, -0.0085, -0.0375, -0.0808, -3.0997, 0.0428, -0.0558
1.8800, 0.0016, -0.0035, 0.0263, -0.0148, -0.0023, 0.2567, 24050, -0.0085, -0.0375, -0.0809, -3.0993, 0.0432, -0.0559
1.9000, -0.0040, -0.0035, 0.0016, -0.0147, -0.0024, 0.2569, 24070, -0.0085, -0.0375, -0.0809, -3.0994, 0.0429, -0.0557
1.9200, -0.0040, -0.0035, 0.0016, -0.0147, -0.0024, 0.2569, 24070, -0.0085, -0.0375, -0.0809, -3.0995, 0.0430, -0.0559
1.9400, 0.0046, 0.0059, 0.0030, -0.0143, -0.0030, 0.2569, 24110, -0.0086, -0.0376, -0.0809, -3.0994, 0.0430, -0.0560
1.9600, -0.0030, -0.0035, 0.0038, -0.0141, -0.0031, 0.2569, 24130, -0.0085, -0.0375, -0.0809, -3.0994, 0.0429, -0.0558
1.9800, -0.0030, -0.0005, 0.0075, -0.0140, -0.0033, 0.2569, 24150, -0.0085, -0.0375, -0.0808, -3.0994, 0.0429, -0.0558
2.0000, -0.0030, -0.0005, 0.0075, -0.0140, -0.0033, 0.2569, 24150, -0.0085, -0.0376, -0.0808, -3.0994, 0.0430, -0.0561
2.0200, -0.0081, 0.0016, -0.0027, -0.0134, -0.0031, 0.2569, 24190, -0.0085, -0.0375, -0.0808, -3.0994, 0.0431, -0.0560
2.0400, 0.0062, 0.0008, -0.0048, -0.0133, -0.0033, 0.2569, 24210, -0.0085, -0.0375, -0.0809, -3.0993, 0.0428, -0.0560
2.0600, 0.0062, 0.0008, -0.0048, -0.0133, -0.0033, 0.2569, 24210, -0.0085, -0.0375, -0.0808, -3.0994, 0.0430, -0.0557
2.0800, -0.0145, -0.0030, 0.0000, -0.0131, -0.0035, 0.2569, 24230, -0.0085, -0.0376, -0.0809, -3.0995, 0.0432, -0.0560
2.1000, -0.0086, -0.0024, 0.0059, -0.0127, -0.0038, 0.2567, 24270, -0.0086, -0.0376, -0.0809, -3.0993, 0.0430, -0.0559
2.1200, 0.0086, -0.0067, 0.0075, -0.0124, -0.0040, 0.2562, 24290, -0.0085, -0.0375, -0.0808, -3.0993, 0.0431, -0.0558
2.1400, 0.0086, -0.0067, 0.0075, -0.0124, -0.0040, 0.2562, 24290, -0.0085, -0.0375, -0.0809, -3.0994, 0.0429, -0.0559
2.1600, -0.0083, 0.0022, 0.0059, -0.0122, -0.0038, 0.2560, 24310, -0.0085, -0.0376, -0.0809, -3.0994, 0.0432, -0.0560
2.1800, -0.0054, -0.0043, 0.0298, -0.0122, -0.0035, 0.2560, 24350, -0.0085, -0.0376, -0.0809, -3.0993, 0.0430, -0.0559
2.2000, 0.0075, -0.0083, 0.0035, -0.0122, -0.0033, 0.2560, 24370, -0.0085, -0.0375, -0.0809, -3.0994, 0.0429, -0.0558
2.2200, 0.0094, 0.0048, 0.0156, -0.0120, -0.0031, 0.2560, 24390, -0.0086, -0.0376, -0.0808, -3.0994, 0.0431, -0.0560
2.2400, 0.0094, 0.0048, 0.0156, -0.0120, -0.0031, 0.2560, 24390, -0.0085, -0.0376, -0.0809, -3.0994, 0.0429, -0.0560
2.2600, 0.0126, -0.0054, 0.0048, -0.0119, -0.0028, 0.2562, 24430, -0.0085, -0.0374, -0.0808, -3.0996, 0.0428, -0.0560
2.2800, -0.0008, 0.0075, 0.0013, -0.0120, -0.0026, 0.2564, 24450, -0.0085, -0.0375, -0.0807, -3.0996, 0.0429, -0.0560
2.3000, -0.0005, 0.0081, 0.0089, -0.0119, -0.0030, 0.2566, 24470, -0.0085, -0.0375, -0.0809, -3.0996, 0.0430, -0.0561
2.3200, -0.0005, 0.0081, 0.0089, -0.0119, -0.0030, 0.2566, 24470, -0.0085, -0.0375, -0.0808, -3.0996, 0.0429, -0.0560
2.3400, 0.0108, 0.0065, 0.0000, -0.0115, -0.0030, 0.2566, 24510, -0.0085, -0.0375, -0.0808, -3.0995, 0.0428, -0.0559
2.3600, 0.0032, -0.0019, 0.0097, -0.0113, -0.0028, 0.2566, 24530, -0.0085, -0.0374, -0.0808, -3.0997, 0.0429, -0.0559
2.3800, 0.0000, 0.0030, 0.0048, -0.0112, -0.0030, 0.2562, 24550, -0.0085, -0.0375, -0.0809, -3.0996, 0.0430, -0.0560
2.4000, 0.0000, 0.0030, 0.0048, -0.0112, -0.0030, 0.2562, 24550, -0.0085, -0.0375, -0.0808, -3.0996, 0.0427, -0.0560
2.4200, 0.0011, 0.0089, -0.0027, -0.0112, -0.0030, 0.2559, 24590, -0.0085, -0.0375, -0.0808, -3.0995, 0.0429, -0.0561
2.4400, 0.0046, -0.0078, -0.0078, -0.0110, -0.0031, 0.2559, 24610, -0.0085, -0.0374, -0.0808, -3.0998, 0.0428, -0.0558
2.4600, -0.0054, -0.0013, -0.0086, -0.0108, -0.0030, 0.2559, 24630, -0.0085, -0.0375, -0.0809, -3.0996, 0.0430, -0.0562
2.4800, -0.0054, -0.0013, -0.0086, -0.0108, -0.0030, 0.2559, 24630, -0.0085, -0.0374, -0.0808, -3.0996, 0.0428, -0.0561
2.5000, 0.0062, 0.0078, 0.0116, -0.0108, -0.0026, 0.2559, 24670, -0.0085, -0.0374, -0.0809, -3.0996, 0.0429, -0.0561
2.5200, 0.0078, -0.0177, -0.0129, -0.0106, -0.0024, 0.2559, 24690, -0.0086, -0.0375, -0.0809, -3.0995, 0.0430, -0.0561
2.5400, 0.0083, 0.0091, -0.0108, -0.0105, -0.0023, 0.2559, 24710, -0.0085, -0.0375, -0.0809, -3.0995, 0.0428, -0.0560
2.5600, 0.0083, 0.0091, -0.0108, -0.0105, -0.0023, 0.2559, 24710, -0.0085, -0.0373, -0.0809, -3.0996, 0.0427, -0.0558
2.5800, -0.0099, 0.0022, 0.0113, -0.0101, -0.0026, 0.2559, 24750, -0.0085, -0.0375, -0.0809, -3.0996, 0.0432, -0.0561
2.6000, 0.0196, -0.0035, 0.0030, -0.0099, -0.0026, 0.2559, 24770, -0.0085, -0.0374, -0.0809, -3.0997, 0.0428, -0.0561
2.6200, 0.0086, 0.0027, -0.0035, -0.0098, -0.0028, 0.2559, 24790, -0.0085, -0.0375, -0.0809, -3.0994, 0.0429, -0.0563
2.6400, 0.0086, 0.0027, -0.0035, -0.0098, -0.0028, 0.2559, 24790, -0.0086, -0.0375, -0.0809, -3.0993, 0.0431, -0.0560
2.6600, 0.0035, 0.0099, 0.0142, -0.0093, -0.0028, 0.2559, 24830, -0.0086, -0.0375, -0.0809, -3.0993, 0.0430, -0.0563
2.6800, -0.0040, 0.0126, 0.0099, -0.0091, -0.0024, 0.2559, 24850, -0.0086, -0.0376, -0.0809, -3.0993, 0.0432, -0.0563
2.7000, 0.0054, 0.0059, 0.0024, -0.0089, -0.0023, 0.2559, 24870, -0.0085, -0.0375, -0.0809, -3.0992, 0.0430, -0.0563
2.7200, 0.0054, 0.0059, 0.0024, -0.0089, -0.0023, 0.2559, 24870, -0.0085, -0.0375, -0.0809, -3.0992, 0.0427, -0.0565
2.7400, 0.0099, 0.0341, 0.0019, -0.0082, -0.0019, 0.2559, 24910, -0.0086, -0.0376, -0.0809, -3.0990, 0.0423, -0.0569
2.7600, -0.0040, 0.0102, 0.0113, -0.0082, -0.0017, 0.2560, 24930, -0.0085, -0.0376, -0.0809, -3.0988, 0.0420, -0.0566
2.7800, -0.0040, 0.0102, 0.0113, -0.0082, -0.0017, 0.2560, 24930, -0.0086, -0.0375, -0.0808, -3.0986, 0.0418, -0.0568
2.8000, 0.0016, 0.0196, 0.0118, -0.0084, -0.0014, 0.2560, 24950, -0.0086, -0.0375, -0.0809, -3.0983, 0.0415, -0.0572
2.8200, 0.0339, 0.0242, 0.0441, -0.0079, -0.0014, 0.2564, 24990, -0.0086, -0.0376, -0.0810, -3.0977, 0.0409, -0.0582
2.8400, 0.0578, 0.0320, 0.0282, -0.0073, -0.0009, 0.2567, 25010, -0.0086, -0.0374, -0.0809, -3.0970, 0.0399, -0.0590
2.8600, 0.0578, 0.0320, 0.0282, -0.0073, -0.0009, 0.2567, 25010, -0.0086, -0.0373, -0.0811, -3.0961, 0.0387, -0.0608
2.8800, 0.0680, 0.0653, 0.0581, -0.0059, 0.0000, 0.2573, 25030, -0.0087, -0.0372, -0.0813, -3.0945, 0.0367, -0.0627
2.9000, 0.1172, 0.1459, 0.1115, -0.0019, 0.0028, 0.2597, 25070, -0.0088, -0.0370, -0.0816, -3.0925, 0.0335, -0.0649
2.9200, 0.1473, 0.2005, 0.1282, 0.0009, 0.0051, 0.2616, 25090, -0.0088, -0.0366, -0.0818, -3.0906, 0.0299, -0.0676
2.9400, 0.1473, 0.2005, 0.1282, 0.0009, 0.0051, 0.2616, 25090, -0.0091, -0.0362, -0.0820, -3.0883, 0.0266, -0.0721
2.9600, 0.1720, 0.2180, 0.1355, 0.0044, 0.0079, 0.2637, 25110, -0.0094, -0.0355, -0.0826, -3.0862, 0.0208, -0.0764
2.9800, 0.2400, 0.2688, 0.1371, 0.0134, 0.0157, 0.2681, 25150, -0.0098, -0.0347, -0.0833, -3.0845, 0.0154, -0.0809
3.0000, 0.2045, 0.2908, 0.0981, 0.0187, 0.0197, 0.2698, 25170, -0.0102, -0.0336, -0.0840, -3.0831, 0.0104, -0.0848
3.0200, 0.1669, 0.2782, 0.0970, 0.0241, 0.0230, 0.2716, 25190, -0.0107, -0.0326, -0.0847, -3.0818, 0.0059, -0.0878
3.0400, 0.1669, 0.2782, 0.0970, 0.0241, 0.0230, 0.2716, 25190, -0.0110, -0.0315, -0.0859, -3.0806, -0.0002, -0.0896
3.0600, 0.0269, 0.2650, 0.0691, 0.0342, 0.0265, 0.2745, 25230, -0.0114, -0.0303, -0.0872, -3.0798, -0.0053, -0.0895
3.0800, -0.0443, 0.2424, 0.0629, 0.0389, 0.0264, 0.2758, 25250, -0.0118, -0.0290, -0.0891, -3.0790, -0.0099, -0.0882
3.1000, -0.0443, 0.2424, 0.0629, 0.0389, 0.0264, 0.2758, 25250, -0.0123, -0.0278, -0.0915, -3.0785, -0.0148, -0.0858
3.1200, -0.1175, 0.2306, 0.0470, 0.0436, 0.0248, 0.2766, 25270, -0.0128, -0.0264, -0.0944, -3.0784, -0.0186, -0.0812
3.1400, -0.2957, 0.1895, 0.0126, 0.0515, 0.0168, 0.2777, 25310, -0.0133, -0.0250, -0.0978, -3.0778, -0.0217, -0.0744
3.1600, -0.3922, 0.1669, 0.0054, 0.0552, 0.0098, 0.2777, 25330, -0.0139, -0.0237, -0.1016, -3.0774, -0.0246, -0.0660
3.1800, -0.3922, 0.1669, 0.0054, 0.0552, 0.0098, 0.2777, 25330, -0.0146, -0.0225, -0.1058, -3.0771, -0.0263, -0.0553
3.2000, -0.5142, 0.1408, -0.0159, 0.0578, 0.0007, 0.2772, 25350, -0.0151, -0.0213, -0.1103, -3.0773, -0.0292, -0.0437
3.2200, -0.6534, 0.0398, -0.0484, 0.0613, -0.0225, 0.2752, 25390, -0.0154, -0.0198, -0.1155, -3.0775, -0.0303, -0.0307
3.2400, -0.6849, 0.0255, -0.0702, 0.0616, -0.0358, 0.2740, 25410, -0.0160, -0.0185, -0.1212, -3.0780, -0.0300, -0.0172
3.2600, -0.6849, 0.0255, -0.0702, 0.0616, -0.0358, 0.2740, 25410, -0.0166, -0.0173, -0.1276, -3.0785, -0.0290, -0.0043
3.2800, -0.6980, -0.0231, -0.0761, 0.0616, -0.0496, 0.2724, 25430, -0.0168, -0.0158, -0.1347, -3.0790, -0.0280, 0.0093
3.3000, -0.6284, -0.1210, -0.0919, 0.0588, -0.0766, 0.2690, 25470, -0.0173, -0.0143, -0.1426, -3.0795, -0.0254, 0.0219
3.3200, -0.5765, -0.1132, -0.0898, 0.0564, -0.0885, 0.2672, 25490, -0.0179, -0.0128, -0.1511, -3.0800, -0.0227, 0.0329
3.3400, -0.5765, -0.1132, -0.0898, 0.0564, -0.0885, 0.2672, 25490, -0.0187, -0.0111, -0.1607, -3.0812, -0.0195, 0.0408
3.3600, -0.4755, -0.1406, -0.1121, 0.0538, -0.0988, 0.2653, 25510, -0.0198, -0.0093, -0.1710, -3.0825, -0.0167, 0.0472
3.3800, -0.2742, -0.1492, -0.0997, 0.0480, -0.1133, 0.2615, 25550, -0.0208, -0.0074, -0.1822, -3.0845, -0.0143, 0.0515
3.4000, -0.1363, -0.1666, -0.1051, 0.0447, -0.1173, 0.2597, 25570, -0.0220, -0.0055, -0.1943, -3.0859, -0.0111, 0.0533
3.4200, -0.1363, -0.1666, -0.1051, 0.0447, -0.1173, 0.2597, 25570, -0.0232, -0.0036, -0.2069, -3.0880, -0.0080, 0.0525
3.4400, -0.0562, -0.1696, -0.1016, 0.0412, -0.1190, 0.2580, 25590, -0.0245, -0.0013, -0.2205, -3.0897, -0.0041, 0.0522
3.4600, 0.1521, -0.1949, -0.0935, 0.0339, -0.1171, 0.2545, 25630, -0.0260, 0.0006, -0.2348, -3.0917, 0.0006, 0.0493
3.4800, 0.2131, -0.2180, -0.1000, 0.0295, -0.1136, 0.2527, 25650, -0.0275, 0.0022, -0.2499, -3.0934, 0.0059, 0.0436
3.5000, 0.2131, -0.2180, -0.1000, 0.0295, -0.1136, 0.2527, 25650, -0.0290, 0.0042, -0.2656, -3.0954, 0.0094, 0.0381
3.5200, 0.2572, -0.2269, -0.0989, 0.0251, -0.1091, 0.2512, 25670, -0.0304, 0.0061, -0.2820, -3.0973, 0.0146, 0.0329
3.5400, 0.3325, -0.2621, -0.1099, 0.0154, -0.0976, 0.2477, 25710, -0.0317, 0.0076, -0.2993, -3.0987, 0.0203, 0.0270
3.5600, 0.3602, -0.2610, -0.0925, 0.0099, -0.0908, 0.2459, 25730, -0.0332, 0.0091, -0.3174, -3.1005, 0.0255, 0.0202
3.5800, 0.3602, -0.2610, -0.0925, 0.0099, -0.0908, 0.2459, 25730, -0.0346, 0.0109, -0.3357, -3.1025, 0.0302, 0.0133
3.6000, 0.3870, -0.2626, -0.0903, 0.0049, -0.0836, 0.2442, 25750, -0.0359, 0.0125, -0.3548, -3.1043, 0.0338, 0.0050
3.6200, 0.3623, -0.2387, -0.0906, -0.0049, -0.0693, 0.2414, 25790, -0.0373, 0.0139, -0.3744, -3.1053, 0.0391, -0.0025
3.6400, 0.3408, -0.2553, -0.0707, -0.0101, -0.0621, 0.2398, 25810, -0.0387, 0.0153, -0.3949, -3.1061, 0.0442, -0.0069
3.6600, 0.3408, -0.2553, -0.0707, -0.0101, -0.0621, 0.2398, 25810, -0.0399, 0.0165, -0.4150, -3.1072, 0.0491, -0.0131
3.6800, 0.2940, -0.2462, -0.0844, -0.0147, -0.0562, 0.2384, 25830, -0.0409, 0.0176, -0.4359, -3.1081, 0.0538, -0.0177
3.7000, 0.2169, -0.2174, -0.0570, -0.0241, -0.0456, 0.2360, 25870, -0.0421, 0.0186, -0.4571, -3.1090, 0.0587, -0.0221
3.7200, 0.1763, -0.2220, -0.0470, -0.0283, -0.0414, 0.2349, 25890, -0.0433, 0.0196, -0.4785, -3.1093, 0.0628, -0.0249
3.7400, 0.1763, -0.2220, -0.0470, -0.0283, -0.0414, 0.2349, 25890, -0.0443, 0.0205, -0.5000, -3.1099, 0.0663, -0.0272
3.7600, 0.1511, -0.2029, -0.0497, -0.0321, -0.0380, 0.2342, 25910, -0.0454, 0.0215, -0.5215, -3.1103, 0.0699, -0.0296
3.7800, 0.1059, -0.1511, -0.0371, -0.0386, -0.0332, 0.2334, 25950, -0.0464, 0.0222, -0.5430, -3.1103, 0.0731, -0.0313
3.8000, 0.0675, -0.1341, -0.0296, -0.0412, -0.0314, 0.2330, 25970, -0.0473, 0.0232, -0.5643, -3.1109, 0.0752, -0.0329
3.8200, 0.0675, -0.1341, -0.0296, -0.0412, -0.0314, 0.2330, 25970, -0.0481, 0.0242, -0.5858, -3.1107, 0.0774, -0.0336
3.8400, 0.0645, -0.1153, -0.0070, -0.0433, -0.0300, 0.2332, 25990, -0.0491, 0.0250, -0.6072, -3.1109, 0.0789, -0.0341
3.8600, 0.0185, -0.0664, 0.0043, -0.0459, -0.0284, 0.2339, 26030, -0.0500, 0.0258, -0.6286, -3.1108, 0.0796, -0.0346
3.8800, -0.0070, -0.0344, 0.0261, -0.0464, -0.0283, 0.2344, 26050, -0.0507, 0.0265, -0.6498, -3.1107, 0.0801, -0.0342
3.9000, -0.0070, -0.0344, 0.0261, -0.0464, -0.0283, 0.2344, 26050, -0.0515, 0.0273, -0.6708, -3.1101, 0.0796, -0.0337
3.9200, -0.0145, -0.0116, 0.0196, -0.0464, -0.0283, 0.2349, 26070, -0.0521, 0.0278, -0.6915, -3.1098, 0.0794, -0.0328
3.9400, -0.0535, 0.0183, 0.0215, -0.0457, -0.0295, 0.2361, 26110, -0.0528, 0.0282, -0.7120, -3.1094, 0.0785, -0.0314
3.9600, -0.0704, 0.0443, 0.0411, -0.0450, -0.0304, 0.2368, 26130, -0.0532, 0.0287, -0.7321, -3.1092, 0.0774, -0.0301
3.9800, -0.0704, 0.0443, 0.0411, -0.0450, -0.0304, 0.2368, 26130, -0.0535, 0.0290, -0.7520, -3.1084, 0.0761, -0.0291
4.0000, -0.0812, 0.0505, 0.0263, -0.0440, -0.0318, 0.2374, 26150, -0.0536, 0.0291, -0.7715, -3.1082, 0.0749, -0.0277
4.0200, -0.0634, 0.0723, 0.0247, -0.0415, -0.0337, 0.2382, 26190, -0.0536, 0.0292, -0.7907, -3.1079, 0.0734, -0.0268
4.0400, -0.0234, 0.0809, 0.0339, -0.0401, -0.0342, 0.2386, 26210, -0.0537, 0.0295, -0.8097, -3.1073, 0.0710, -0.0266
4.0600, -0.0234, 0.0809, 0.0339, -0.0401, -0.0342, 0.2386, 26210, -0.0535, 0.0294, -0.8284, -3.1067, 0.0697, -0.0278
4.0800, 0.0183, 0.0839, 0.0202, -0.0382, -0.0340, 0.2388, 26230, -0.0533, 0.0294, -0.8466, -3.1066, 0.0675, -0.0299
4.1000, 0.1513, 0.1261, 0.0398, -0.0340, -0.0311, 0.2393, 26270, -0.0530, 0.0295, -0.8646, -3.1061, 0.0647, -0.0329
4.1200, 0.2166, 0.1382, 0.0258, -0.0314, -0.0272, 0.2396, 26290, -0.0527, 0.0295, -0.8826, -3.1059, 0.0621, -0.0382
4.1400, 0.2166, 0.1382, 0.0258, -0.0314, -0.0272, 0.2396, 26290, -0.0524, 0.0294, -0.9003, -3.1054, 0.0592, -0.0454
4.1600, 0.3110, 0.1742, 0.0237, -0.0283, -0.0222, 0.2398, 26310, -0.0519, 0.0296, -0.9177, -3.1053, 0.0560, -0.0544
4.1800, 0.5523, 0.1954, 0.0202, -0.0213, -0.0056, 0.2396, 26350, -0.0515, 0.0299, -0.9351, -3.1052, 0.0529, -0.0664
4.2000, 0.6765, 0.2053, -0.0005, -0.0175, 0.0063, 0.2396, 26370, -0.0512, 0.0302, -0.9523, -3.1053, 0.0497, -0.0808
4.2200, 0.6765, 0.2053, -0.0005, -0.0175, 0.0063, 0.2396, 26370, -0.0507, 0.0304, -0.9692, -3.1056, 0.0460, -0.0975
4.2400, 0.7969, 0.2142, 0.0046, -0.0133, 0.0209, 0.2396, 26390, -0.0502, 0.0308, -0.9859, -3.1060, 0.0418, -0.1167
4.2600, 1.0773, 0.2330, -0.0067, -0.0042, 0.0579, 0.2402, 26430, -0.0498, 0.0311, -1.0023, -3.1065, 0.0372, -0.1389
4.2800, 1.2329, 0.2556, 0.0110, 0.0005, 0.0810, 0.2407, 26450, -0.0495, 0.0312, -1.0186, -3.1069, 0.0316, -0.1639
4.3000, 1.2329, 0.2556, 0.0110, 0.0005, 0.0810, 0.2407, 26450, -0.0495, 0.0311, -1.0343, -3.1077, 0.0264, -0.1924
4.3200, 1.3995, 0.2873, 0.0070, 0.0058, 0.1072, 0.2416, 26470, -0.0497, 0.0311, -1.0497, -3.1083, 0.0196, -0.2259
4.3400, 1.8952, 0.4188, 0.0616, 0.0195, 0.1723, 0.2449, 26510, -0.0504, 0.0312, -1.0651, -3.1087, 0.0115, -0.2649
4.3600, 2.2199, 0.5174, 0.0930, 0.0283, 0.2135, 0.2484, 26530, -0.0515, 0.0317, -1.0804, -3.1092, 0.0016, -0.3111
4.3800, 2.2199, 0.5174, 0.0930, 0.0283, 0.2135, 0.2484, 26530, -0.0527, 0.0327, -1.0956, -3.1099, -0.0095, -0.3637
4.4000, 2.5505, 0.5884, 0.1234, 0.0380, 0.2613, 0.2532, 26550, -0.0539, 0.0339, -1.1107, -3.1106, -0.0209, -0.4206
4.4200, 3.0501, 0.6883, 0.2279, 0.0599, 0.3745, 0.2681, 26590, -0.0555, 0.0354, -1.1256, -3.1126, -0.0360, -0.4829
4.4400, 3.2318, 0.7093, 0.2575, 0.0707, 0.4379, 0.2782, 26610, -0.0572, 0.0373, -1.1407, -3.1141, -0.0498, -0.5474
4.4600, 3.2318, 0.7093, 0.2575, 0.0707, 0.4379, 0.2782, 26610, -0.0589, 0.0398, -1.1557, -3.1160, -0.0636, -0.6150
4.4800, 3.3934, 0.7077, 0.2916, 0.0806, 0.5047, 0.2897, 26630, -0.0604, 0.0429, -1.1702, -3.1182, -0.0790, -0.6843
4.5000, 3.5928, 0.6883, 0.4005, 0.0960, 0.6472, 0.3170, 26670, -0.0620, 0.0469, -1.1847, -3.1215, -0.0930, -0.7549
4.5200, 3.6041, 0.6679, 0.4158, 0.1014, 0.7206, 0.3321, 26690, -0.0638, 0.0508, -1.1985, -3.1241, -0.1073, -0.8267
4.5400, 3.6041, 0.6679, 0.4158, 0.1014, 0.7206, 0.3321, 26690, -0.0647, 0.0559, -1.2123, -3.1291, -0.1226, -0.8975
4.5600, 3.5390, 0.6564, 0.4513, 0.1049, 0.7896, 0.3471, 26710, -0.0669, 0.0614, -1.2247, -3.1332, -0.1373, -0.9618
4.5800, 3.2896, 0.5851, 0.5260, 0.1065, 0.9327, 0.3803, 26750, -0.0683, 0.0676, -1.2371, -3.1363, -0.1506, -1.0245
4.6000, 3.0958, 0.5314, 0.5292, 0.1047, 0.9978, 0.3957, 26770, -0.0699, 0.0743, -1.2486, -3.1402, -0.1635, -1.0830
4.6200, 3.0958, 0.5314, 0.5292, 0.1047, 0.9978, 0.3957, 26770, -0.0715, 0.0815, -1.2597, 3.1399, -0.1757, -1.1362
4.6400, 3.0958, 0.5314, 0.5292, 0.1047, 0.9978, 0.3957, 26770, -0.0728, 0.0892, -1.2702, 3.1370, -0.1876, -1.1852
4.6600, 2.5623, 0.5040, 0.5518, 0.0967, 1.1130, 0.4248, 26810, -0.0741, 0.0973, -1.2802, 3.1387, -0.1946, -1.2278
4.6800, 2.2537, 0.4908, 0.5376, 0.0915, 1.1594, 0.4377, 26830, -0.0753, 0.1060, -1.2893, -3.1400, -0.1997, -1.2630
4.7000, 1.9382, 0.4677, 0.5591, 0.0852, 1.2041, 0.4517, 26850, -0.0764, 0.1153, -1.2977, -3.1314, -0.1998, -1.2933
4.7200, 1.6154, 0.4671, 0.5392, 0.0787, 1.2401, 0.4644, 26870, -0.0770, 0.1252, -1.3058, -3.1152, -0.1923, -1.3201
4.7400, 1.3297, 0.4384, 0.5333, 0.0717, 1.2701, 0.4766, 26890, -0.0776, 0.1352, -1.3128, -3.0937, -0.1795, -1.3394
4.7600, 1.0254, 0.4016, 0.5300, 0.0642, 1.2940, 0.4880, 26910, -0.0777, 0.1460, -1.3193, -3.0629, -0.1556, -1.3532
4.7800, 0.7649, 0.3435, 0.5069, 0.0564, 1.3123, 0.4985, 26930, -0.0776, 0.1573, -1.3252, -3.0251, -0.1235, -1.3634
4.8000, 0.5093, 0.2774, 0.5236, 0.0482, 1.3251, 0.5075, 26950, -0.0772, 0.1689, -1.3303, -2.9843, -0.0875, -1.3683
4.8200, 0.3260, 0.1986, 0.5163, 0.0396, 1.3333, 0.5149, 26970, -0.0757, 0.1819, -1.3351, -2.9290, -0.0359, -1.3733
4.8400, 0.1664, 0.1274, 0.4989, 0.0307, 1.3376, 0.5205, 26990, -0.0752, 0.1949, -1.3388, -2.8822, 0.0088, -1.3729
4.8600, 0.0312, 0.0664, 0.5050, 0.0215, 1.3390, 0.5248, 27010, -0.0743, 0.2087, -1.3418, -2.8274, 0.0620, -1.3718
4.8800, -0.0605, 0.0347, 0.4999, 0.0120, 1.3388, 0.5285, 27030, -0.0732, 0.2232, -1.3441, -2.7796, 0.1083, -1.3697
4.9000, -0.1226, -0.0011, 0.5126, 0.0024, 1.3371, 0.5311, 27050, -0.0728, 0.2377, -1.3454, -2.7400, 0.1471, -1.3638
4.9200, -0.1887, -0.0398, 0.4843, -0.0070, 1.3341, 0.5332, 27070, -0.0715, 0.2534, -1.3463, -2.6992, 0.1886, -1.3589
4.9400, -0.1908, -0.0782, 0.4736, -0.0161, 1.3308, 0.5348, 27090, -0.0708, 0.2694, -1.3464, -2.6571, 0.2303, -1.3530
4.9600, -0.2217, -0.0914, 0.4873, -0.0262, 1.3265, 0.5356, 27110, -0.0692, 0.2864, -1.3462, -2.6107, 0.2768, -1.3473
4.9800, -0.2191, -0.0986, 0.4841, -0.0360, 1.3223, 0.5363, 27130, -0.0687, 0.3036, -1.3450, -2.5830, 0.3059, -1.3403
5.0000, -0.2384, -0.1158, 0.4696, -0.0456, 1.3179, 0.5367, 27150, -0.0677, 0.3216, -1.3436, -2.5540, 0.3357, -1.3326
5.0200, -0.2704, -0.1191, 0.4521, -0.0548, 1.3128, 0.5370, 27170, -0.0668, 0.3401, -1.3418, -2.5287, 0.3615, -1.3236
5.0400, -0.3142, -0.1185, 0.4400, -0.0637, 1.3067, 0.5376, 27190, -0.0657, 0.3591, -1.3392, -2.5099, 0.3803, -1.3127
5.0600, -0.3556, -0.0930, 0.4338, -0.0717, 1.3001, 0.5379, 27210, -0.0652, 0.3783, -1.3371, -2.4944, 0.3953, -1.3015
5.0800, -0.3556, -0.0930, 0.4338, -0.0717, 1.3001, 0.5379, 27210, -0.0646, 0.3980, -1.3346, -2.4843, 0.4041, -1.2891
5.1000, -0.5314, 0.0137, 0.3784, -0.0864, 1.2807, 0.5409, 27250, -0.0645, 0.4175, -1.3322, -2.4809, 0.4055, -1.2749
5.1200, -0.6558, 0.0887, 0.3569, -0.0918, 1.2676, 0.5440, 27270, -0.0648, 0.4375, -1.3297, -2.4840, 0.3976, -1.2568
5.1400, -0.7875, 0.1771, 0.2865, -0.0960, 1.2519, 0.5487, 27290, -0.0652, 0.4576, -1.3272, -2.4920, 0.3823, -1.2377
5.1600, -0.9329, 0.2357, 0.2516, -0.1009, 1.2329, 0.5548, 27310, -0.0655, 0.4778, -1.3247, -2.5067, 0.3608, -1.2163
5.1800, -1.0824, 0.3373, 0.2059, -0.1025, 1.2109, 0.5622, 27330, -0.0662, 0.4977, -1.3222, -2.5205, 0.3382, -1.1918
5.2000, -1.2426, 0.4325, 0.1564, -0.1016, 1.1858, 0.5711, 27350, -0.0669, 0.5176, -1.3198, -2.5407, 0.3072, -1.1623
5.2200, -1.4272, 0.5287, 0.1158, -0.0997, 1.1585, 0.5810, 27370, -0.0682, 0.5373, -1.3176, -2.5625, 0.2739, -1.1298
5.2400, -1.6199, 0.6397, 0.0543, -0.0974, 1.1280, 0.5927, 27390, -0.0693, 0.5566, -1.3154, -2.5826, 0.2416, -1.0959
5.2600, -1.7890, 0.7163, -0.0019, -0.0929, 1.0936, 0.6053, 27410, -0.0706, 0.5757, -1.3136, -2.6022, 0.2076, -1.0599
5.2800, -1.9124, 0.7765, -0.0680, -0.0862, 1.0563, 0.6184, 27430, -0.0718, 0.5945, -1.3115, -2.6219, 0.1723, -1.0213
5.3000, -2.0366, 0.8550, -0.1161, -0.0777, 1.0165, 0.6316, 27450, -0.0734, 0.6131, -1.3098, -2.6385, 0.1401, -0.9819
5.3200, -2.1097, 0.8983, -0.1645, -0.0668, 0.9749, 0.6451, 27470, -0.0754, 0.6316, -1.3078, -2.6540, 0.1080, -0.9411
5.3400, -2.1078, 0.9757, -0.2105, -0.0541, 0.9327, 0.6585, 27490, -0.0774, 0.6499, -1.3056, -2.6683, 0.0752, -0.9015
5.3600, -2.0849, 1.0262, -0.2556, -0.0393, 0.8913, 0.6716, 27510, -0.0795, 0.6677, -1.3036, -2.6808, 0.0457, -0.8633
5.3800, -2.0486, 1.0267, -0.3000, -0.0229, 0.8507, 0.6840, 27530, -0.0814, 0.6854, -1.3016, -2.6922, 0.0177, -0.8248
5.4000, -1.9997, 1.0302, -0.3602, -0.0056, 0.8114, 0.6950, 27550, -0.0836, 0.7029, -1.2997, -2.7032, -0.0086, -0.7878
5.4200, -1.9495, 0.9824, -0.3744, 0.0122, 0.7732, 0.7044, 27570, -0.0858, 0.7200, -1.2976, -2.7125, -0.0332, -0.7522
5.4400, -1.8731, 0.9233, -0.4008, 0.0302, 0.7364, 0.7119, 27590, -0.0880, 0.7370, -1.2955, -2.7222, -0.0553, -0.7183
5.4600, -1.7780, 0.8620, -0.4317, 0.0476, 0.7013, 0.7172, 27610, -0.0903, 0.7536, -1.2935, -2.7296, -0.0728, -0.6859
5.4800, -1.6796, 0.7448, -0.4497, 0.0644, 0.6683, 0.7199, 27630, -0.0925, 0.7701, -1.2911, -2.7385, -0.0907, -0.6549
5.5000, -1.6796, 0.7448, -0.4497, 0.0644, 0.6683, 0.7199, 27630, -0.0946, 0.7864, -1.2892, -2.7461, -0.1037, -0.6245
5.5200, -1.5506, 0.5279, -0.4964, 0.0935, 0.6070, 0.7191, 27670, -0.0969, 0.8025, -1.2872, -2.7535, -0.1150, -0.5941
5.5400, -1.5022, 0.4018, -0.5303, 0.1070, 0.5777, 0.7156, 27690, -0.0988, 0.8184, -1.2854, -2.7613, -0.1229, -0.5651
5.5600, -1.4108, 0.2021, -0.5929, 0.1307, 0.5208, 0.7021, 27730, -0.1011, 0.8341, -1.2835, -2.7697, -0.1314, -0.5367
5.5800, -1.4108, 0.2021, -0.5929, 0.1307, 0.5208, 0.7021, 27730, -0.1032, 0.8498, -1.2817, -2.7799, -0.1392, -0.5088
5.6000, -1.3869, 0.1414, -0.6435, 0.1400, 0.4931, 0.6927, 27750, -0.1055, 0.8648, -1.2800, -2.7894, -0.1440, -0.4804
5.6200, -1.3606, 0.0809, -0.6932, 0.1468, 0.4655, 0.6819, 27770, -0.1079, 0.8794, -1.2784, -2.7998, -0.1495, -0.4516
5.6400, -1.3160, 0.0347, -0.7870, 0.1597, 0.4102, 0.6552, 27810, -0.1101, 0.8941, -1.2769, -2.8122, -0.1545, -0.4237
5.6600, -1.3160, 0.0347, -0.7870, 0.1597, 0.4102, 0.6552, 27810, -0.1125, 0.9081, -1.2757, -2.8245, -0.1597, -0.3958
5.6800, -1.3082, 0.0320, -0.8510, 0.1676, 0.3828, 0.6400, 27830, -0.1150, 0.9218, -1.2746, -2.8381, -0.1644, -0.3689
5.7000, -1.2630, 0.0667, -0.8975, 0.1756, 0.3555, 0.6238, 27850, -0.1173, 0.9355, -1.2732, -2.8541, -0.1754, -0.3423
5.7200, -1.2114, 0.1911, -0.9676, 0.1941, 0.3023, 0.5887, 27890, -0.1198, 0.9480, -1.2730, -2.8679, -0.1807, -0.3153
5.7400, -1.2114, 0.1911, -0.9676, 0.1941, 0.3023, 0.5887, 27890, -0.1218, 0.9602, -1.2727, -2.8829, -0.1891, -0.2883
5.7600, -1.1802, 0.2416, -1.0232, 0.2046, 0.2756, 0.5702, 27910, -0.1235, 0.9722, -1.2729, -2.8990, -0.1984, -0.2616
5.7800, -1.1523, 0.2790, -1.0493, 0.2154, 0.2489, 0.5510, 27930, -0.1250, 0.9839, -1.2736, -2.9151, -0.2093, -0.2334
5.8000, -1.1439, 0.4196, -1.0977, 0.2388, 0.1948, 0.5107, 27970, -0.1261, 0.9947, -1.2750, -2.9305, -0.2212, -0.2069
5.8200, -1.1439, 0.4196, -1.0977, 0.2388, 0.1948, 0.5107, 27970, -0.1270, 1.0050, -1.2770, -2.9464, -0.2341, -0.1801
5.8400, -1.1031, 0.5499, -1.1087, 0.2524, 0.1677, 0.4899, 27990, -0.1275, 1.0146, -1.2792, -2.9627, -0.2493, -0.1555
5.8600, -1.1031, 0.5499, -1.1087, 0.2524, 0.1677, 0.4899, 27990, -0.1278, 1.0238, -1.2819, -2.9782, -0.2661, -0.1303
5.8800, -1.0176, 0.9192, -1.1125, 0.3042, 0.0885, 0.4259, 28050, -0.1280, 1.0321, -1.2848, -2.9943, -0.2873, -0.1052
5.9000, -1.0176, 0.9192, -1.1125, 0.3042, 0.0885, 0.4259, 28050, -0.1282, 1.0399, -1.2880, -3.0084, -0.3107, -0.0773
5.9200, -1.0063, 1.1085, -1.1168, 0.3262, 0.0621, 0.4040, 28070, -0.1283, 1.0468, -1.2913, -3.0221, -0.3369, -0.0517
5.9400, -0.9528, 1.2799, -1.1058, 0.3517, 0.0358, 0.3815, 28090, -0.1279, 1.0529, -1.2947, -3.0375, -0.3653, -0.0286
5.9600, -0.8370, 1.5831, -1.1023, 0.4115, -0.0155, 0.3342, 28130, -0.1277, 1.0583, -1.2983, -3.0517, -0.3952, -0.0036
5.9800, -0.8370, 1.5831, -1.1023, 0.4115, -0.0155, 0.3342, 28130, -0.1273, 1.0632, -1.3018, -3.0674, -0.4268, 0.0172
6.0000, -0.7722, 1.7011, -1.0896, 0.4444, -0.0407, 0.3093, 28150, -0.1267, 1.0670, -1.3053, -3.0828, -0.4593, 0.0371
6.0200, -0.6410, 1.7568, -1.0722, 0.4768, -0.0649, 0.2831, 28170, -0.1261, 1.0702, -1.3088, -3.0988, -0.4923, 0.0551
6.0400, -0.3870, 1.7909, -1.0501, 0.5419, -0.1096, 0.2271, 28210, -0.1255, 1.0729, -1.3121, -3.1150, -0.5248, 0.0730
6.0600, -0.3870, 1.7909, -1.0501, 0.5419, -0.1096, 0.2271, 28210, -0.1249, 1.0747, -1.3151, -3.1322, -0.5563, 0.0872
6.0800, -0.2602, 1.7869, -1.0504, 0.5740, -0.1304, 0.1970, 28230, -0.1245, 1.0761, -1.3180, 3.1318, -0.5843, 0.0992
6.1000, -0.0831, 1.6920, -1.0523, 0.6044, -0.1496, 0.1663, 28250, -0.1241, 1.0770, -1.3210, 3.1117, -0.6092, 0.1092
6.1200, 0.3164, 1.3498, -1.0480, 0.6562, -0.1810, 0.1025, 28290, -0.1238, 1.0775, -1.3241, 3.0899, -0.6289, 0.1164
6.1400, 0.3164, 1.3498, -1.0480, 0.6562, -0.1810, 0.1025, 28290, -0.1236, 1.0772, -1.3270, 3.0665, -0.6445, 0.1216
6.1600, 0.4545, 1.1111, -1.0375, 0.6754, -0.1918, 0.0705, 28310, -0.1235, 1.0768, -1.3299, 3.0416, -0.6547, 0.1253
6.1800, 0.5881, 0.8483, -1.0466, 0.6896, -0.1997, 0.0393, 28330, -0.1238, 1.0755, -1.3327, 3.0152, -0.6588, 0.1272
6.2000, 0.9007, 0.4123, -1.0501, 0.7034, -0.2061, 6.2619, 28370, -0.1244, 1.0742, -1.3355, 2.9875, -0.6598, 0.1268
6.2200, 0.9007, 0.4123, -1.0501, 0.7034, -0.2061, 6.2619, 28370, -0.1254, 1.0724, -1.3378, 2.9581, -0.6572, 0.1239
6.2400, 1.0200, 0.2398, -1.0684, 0.7041, -0.2049, 6.2327, 28390, -0.1270, 1.0703, -1.3400, 2.9272, -0.6523, 0.1200
6.2600, 1.1308, 0.0984, -1.0628, 0.7025, -0.2007, 6.2045, 28410, -0.1294, 1.0682, -1.3418, 2.8966, -0.6459, 0.1157
6.2800, 1.2652, -0.0503, -1.0620, 0.6938, -0.1861, 6.1497, 28450, -0.1324, 1.0656, -1.3433, 2.8648, -0.6394, 0.1089
6.3000, 1.2652, -0.0503, -1.0620, 0.6938, -0.1861, 6.1497, 28450, -0.1361, 1.0627, -1.3444, 2.8319, -0.6327, 0.1009
6.3200, 1.3135, -0.0761, -1.0603, 0.6882, -0.1768, 6.1228, 28470, -0.1407, 1.0597, -1.3451, 2.8001, -0.6263, 0.0938
6.3400, 1.3506, -0.0871, -1.0520, 0.6826, -0.1665, 6.0959, 28490, -0.1460, 1.0566, -1.3455, 2.7667, -0.6207, 0.0844
6.3600, 1.4208, -0.0465, -1.0448, 0.6725, -0.1435, 6.0422, 28530, -0.1518, 1.0536, -1.3452, 2.7343, -0.6168, 0.0762
6.3800, 1.4208, -0.0465, -1.0448, 0.6725, -0.1435, 6.0422, 28530, -0.1582, 1.0504, -1.3447, 2.7009, -0.6123, 0.0656
6.4000, 1.4318, -0.0374, -1.0356, 0.6688, -0.1314, 6.0172, 28550, -0.1650, 1.0467, -1.3439, 2.6673, -0.6083, 0.0535
6.4200, 1.4162, -0.0247, -1.0176, 0.6650, -0.1175, 5.9901, 28570, -0.1733, 1.0437, -1.3429, 2.6375, -0.6047, 0.0449
6.4400, 1.4498, -0.0521, -0.9520, 0.6582, -0.0894, 5.9401, 28610, -0.1821, 1.0399, -1.3416, 2.6064, -0.6015, 0.0334
6.4600, 1.4498, -0.0521, -0.9520, 0.6582, -0.0894, 5.9401, 28610, -0.1916, 1.0365, -1.3400, 2.5761, -0.5978, 0.0218
6.4800, 1.4525, -0.0712, -0.9211, 0.6548, -0.0738, 5.9165, 28630, -0.2017, 1.0331, -1.3383, 2.5453, -0.5921, 0.0087
6.5000, 1.4525, -0.0712, -0.9211, 0.6548, -0.0738, 5.9165, 28630, -0.2127, 1.0297, -1.3365, 2.5151, -0.5855, -0.0059
6.5200, 1.5390, -0.3010, -0.8171, 0.6397, -0.0201, 5.8516, 28690, -0.2240, 1.0264, -1.3348, 2.4857, -0.5766, -0.0212
6.5400, 1.5390, -0.3010, -0.8171, 0.6397, -0.0201, 5.8516, 28690, -0.2361, 1.0232, -1.3329, 2.4576, -0.5682, -0.0373
6.5600, 1.5670, -0.3948, -0.7827, 0.6316, 0.0002, 5.8318, 28710, -0.2488, 1.0202, -1.3309, 2.4294, -0.5581, -0.0548
6.5800, 1.5920, -0.4916, -0.7300, 0.6219, 0.0220, 5.8130, 28730, -0.2618, 1.0171, -1.3287, 2.4023, -0.5482, -0.0736
6.6000, 1.6097, -0.6362, -0.6351, 0.5983, 0.0651, 5.7783, 28770, -0.2748, 1.0150, -1.3273, 2.3756, -0.5361, -0.0913
6.6200, 1.6097, -0.6362, -0.6351, 0.5983, 0.0651, 5.7783, 28770, -0.2888, 1.0126, -1.3259, 2.3510, -0.5211, -0.1119
6.6400, 1.6310, -0.6840, -0.5650, 0.5847, 0.0874, 5.7624, 28790, -0.3024, 1.0107, -1.3244, 2.3288, -0.5133, -0.1339
6.6600, 1.6366, -0.7271, -0.4967, 0.5704, 0.1107, 5.7477, 28810, -0.3169, 1.0096, -1.3221, 2.3062, -0.4995, -0.1555
6.6800, 1.6103, -0.7988, -0.3457, 0.5404, 0.1597, 5.7226, 28850, -0.3312, 1.0083, -1.3206, 2.2858, -0.4871, -0.1797
6.7000, 1.6103, -0.7988, -0.3457, 0.5404, 0.1597, 5.7226, 28850, -0.3449, 1.0076, -1.3200, 2.2680, -0.4811, -0.2032
6.7200, 1.5810, -0.8313, -0.2811, 0.5243, 0.1852, 5.7121, 28870, -0.3610, 1.0071, -1.3179, 2.2489, -0.4567, -0.2288
6.7400, 1.5296, -0.8698, -0.1922, 0.5075, 0.2110, 5.7032, 28890, -0.3749, 1.0069, -1.3167, 2.2347, -0.4432, -0.2522
6.7600, 1.4372, -0.9555, 0.0126, 0.4709, 0.2621, 5.6903, 28930, -0.3891, 1.0067, -1.3161, 2.2237, -0.4260, -0.2782
6.7800, 1.4372, -0.9555, 0.0126, 0.4709, 0.2621, 5.6903, 28930, -0.4031, 1.0068, -1.3158, 2.2155, -0.4096, -0.3033
6.8000, 1.4055, -0.9770, 0.0989, 0.4529, 0.2875, 5.6861, 28950, -0.4170, 1.0072, -1.3156, 2.2100, -0.3913, -0.3295
6.8200, 1.3538, -0.9819, 0.1984, 0.4342, 0.3126, 5.6835, 28970, -0.4300, 1.0076, -1.3160, 2.2094, -0.3730, -0.3566
6.8400, 1.2990, -1.0163, 0.3997, 0.3948, 0.3627, 5.6826, 29010, -0.4428, 1.0086, -1.3164, 2.2087, -0.3540, -0.3836
6.8600, 1.2990, -1.0163, 0.3997, 0.3948, 0.3627, 5.6826, 29010, -0.4557, 1.0103, -1.3170, 2.2080, -0.3346, -0.4104
6.8800, 1.3084, -1.0273, 0.5042, 0.3737, 0.3882, 5.6838, 29030, -0.4672, 1.0114, -1.3181, 2.2148, -0.3131, -0.4386
6.9000, 1.2893, -1.0383, 0.6107, 0.3526, 0.4126, 5.6865, 29050, -0.4780, 1.0130, -1.3198, 2.2228, -0.2906, -0.4680
6.9200, 1.3082, -1.0512, 0.7765, 0.3053, 0.4650, 5.6948, 29090, -0.4896, 1.0155, -1.3216, 2.2309, -0.2668, -0.4969
6.9400, 1.3082, -1.0512, 0.7765, 0.3053, 0.4650, 5.6948, 29090, -0.5001, 1.0183, -1.3242, 2.2421, -0.2398, -0.5278
6.9600, 1.3565, -1.0735, 0.8628, 0.2780, 0.4938, 5.7004, 29110, -0.5097, 1.0214, -1.3272, 2.2558, -0.2118, -0.5599
6.9800, 1.3985, -1.1106, 0.9636, 0.2508, 0.5220, 5.7060, 29130, -0.5190, 1.0251, -1.3307, 2.2724, -0.1823, -0.5928
7.0000, 1.5796, -1.0773, 1.0840, 0.1929, 0.5833, 5.7182, 29170, -0.5272, 1.0291, -1.3347, 2.2919, -0.1505, -0.6287
7.0200, 1.5796, -1.0773, 1.0840, 0.1929, 0.5833, 5.7182, 29170, -0.5348, 1.0336, -1.3384, 2.3137, -0.1194, -0.6664
7.0400, 1.7205, -1.0617, 1.1047, 0.1634, 0.6168, 5.7245, 29190, -0.5413, 1.0390, -1.3426, 2.3378, -0.0842, -0.7066
7.0600, 1.8686, -1.0383, 1.1754, 0.1339, 0.6526, 5.7308, 29210, -0.5473, 1.0444, -1.3460, 2.3654, -0.0497, -0.7480
7.0800, 2.0680, -0.8975, 1.2375, 0.0756, 0.7311, 5.7437, 29250, -0.5524, 1.0501, -1.3497, 2.3982, -0.0108, -0.7925
7.1000, 2.0680, -0.8975, 1.2375, 0.0756, 0.7311, 5.7437, 29250, -0.5573, 1.0571, -1.3528, 2.4318, 0.0291, -0.8338
7.1200, 2.1185, -0.8821, 1.2568, 0.0464, 0.7725, 5.7498, 29270, -0.5609, 1.0643, -1.3563, 2.4728, 0.0757, -0.8755
7.1400, 2.1357, -0.8738, 1.2729, 0.0175, 0.8140, 5.7554, 29290, -0.5643, 1.0724, -1.3590, 2.5147, 0.1245, -0.9127
7.1600, 1.9841, -0.8956, 1.2514, -0.0405, 0.8943, 5.7624, 29330, -0.5664, 1.0802, -1.3623, 2.5654, 0.1814, -0.9482
7.1800, 1.9841, -0.8956, 1.2514, -0.0405, 0.8943, 5.7624, 29330, -0.5684, 1.0892, -1.3650, 2.6171, 0.2395, -0.9769
7.2000, 1.8723, -0.8878, 1.2380, -0.0696, 0.9315, 5.7640, 29350, -0.5690, 1.0983, -1.3676, 2.6729, 0.3018, -1.0028
7.2200, 1.7508, -0.8708, 1.2235, -0.0988, 0.9662, 5.7645, 29370, -0.5684, 1.1077, -1.3698, 2.7362, 0.3710, -1.0256
7.2400, 1.5108, -0.7822, 1.2350, -0.1557, 1.0292, 5.7641, 29410, -0.5677, 1.1174, -1.3719, 2.8007, 0.4400, -1.0429
7.2600, 1.5108, -0.7822, 1.2350, -0.1557, 1.0292, 5.7641, 29410, -0.5661, 1.1274, -1.3735, 2.8683, 0.5104, -1.0559
7.2800, 1.4149, -0.7031, 1.2240, -0.1833, 1.0575, 5.7643, 29430, -0.5638, 1.1376, -1.3747, 2.9354, 0.5771, -1.0653
7.3000, 1.2875, -0.6010, 1.2428, -0.2101, 1.0833, 5.7650, 29450, -0.5610, 1.1478, -1.3755, 3.0025, 0.6441, -1.0689
7.3200, 0.9754, -0.3344, 1.2987, -0.2620, 1.1256, 5.7715, 29490, -0.5576, 1.1582, -1.3759, 3.0657, 0.7025, -1.0675
7.3400, 0.9754, -0.3344, 1.2987, -0.2620, 1.1256, 5.7715, 29490, -0.5535, 1.1686, -1.3762, 3.1241, 0.7549, -1.0617
7.3600, 0.7838, -0.1806, 1.3079, -0.2868, 1.1400, 5.7783, 29510, -0.5487, 1.1791, -1.3762, -3.1072, 0.7977, -1.0510
7.3800, 0.5677, -0.0210, 1.3393, -0.3107, 1.1495, 5.7879, 29530, -0.5430, 1.1893, -1.3760, -3.0609, 0.8316, -1.0358
7.4000, 0.1314, 0.3451, 1.3893, -0.3547, 1.1512, 5.8170, 29570, -0.5371, 1.2000, -1.3754, -3.0258, 0.8512, -1.0171
7.4200, 0.1314, 0.3451, 1.3893, -0.3547, 1.1512, 5.8170, 29570, -0.5307, 1.2108, -1.3747, -2.9959, 0.8629, -0.9958
7.4400, -0.0745, 0.5462, 1.4065, -0.3763, 1.1427, 5.8395, 29590, -0.5246, 1.2220, -1.3736, -2.9751, 0.8614, -0.9722
7.4600, -0.2820, 0.7658, 1.4310, -0.3951, 1.1285, 5.8655, 29610, -0.5169, 1.2330, -1.3723, -2.9539, 0.8564, -0.9453
7.4800, -0.6561, 1.1724, 1.4313, -0.4266, 1.0818, 5.9322, 29650, -0.5099, 1.2443, -1.3708, -2.9422, 0.8382, -0.9177
7.5000, -0.6561, 1.1724, 1.4313, -0.4266, 1.0818, 5.9322, 29650, -0.5018, 1.2554, -1.3689, -2.9344, 0.8159, -0.8865
7.5200, -0.8657, 1.3525, 1.4270, -0.4383, 1.0489, 5.9722, 29670, -0.4925, 1.2662, -1.3669, -2.9331, 0.7848, -0.8505
7.5400, -1.0770, 1.4872, 1.4348, -0.4470, 1.0100, 6.0155, 29690, -0.4839, 1.2768, -1.3644, -2.9260, 0.7565, -0.8165
7.5600, -1.4068, 1.6745, 1.4033, -0.4550, 0.9175, 6.1094, 29730, -0.4746, 1.2875, -1.3617, -2.9236, 0.7240, -0.7784
7.5800, -1.4068, 1.6745, 1.4033, -0.4550, 0.9175, 6.1094, 29730, -0.4642, 1.2979, -1.3588, -2.9218, 0.6888, -0.7404
7.6000, -1.5514, 1.7541, 1.3740, -0.4541, 0.8681, 6.1563, 29750, -0.4531, 1.3079, -1.3556, -2.9248, 0.6499, -0.7013
7.6200, -1.6737, 1.8084, 1.3321, -0.4496, 0.8109, 6.2083, 29770, -0.4417, 1.3171, -1.3522, -2.9190, 0.6178, -0.6664
7.6400, -1.8057, 1.8790, 1.2170, -0.4288, 0.7018, 0.0223, 29810, -0.4309, 1.3282, -1.3491, -2.9284, 0.5722, -0.6203
7.6600, -1.8057, 1.8790, 1.2170, -0.4288, 0.7018, 0.0223, 29810, -0.4187, 1.3381, -1.3451, -2.9268, 0.5340, -0.5789
7.6800, -1.8570, 1.9000, 1.1402, -0.4131, 0.6475, 0.0686, 29830, -0.4064, 1.3479, -1.3413, -2.9268, 0.4961, -0.5390
7.7000, -1.9161, 1.8984, 1.0700, -0.3941, 0.5938, 0.1119, 29850, -0.3939, 1.3578, -1.3378, -2.9271, 0.4567, -0.4989
7.7200, -1.9320, 1.9102, 0.9332, -0.3477, 0.4903, 0.1899, 29890, -0.3811, 1.3677, -1.3349, -2.9280, 0.4174, -0.4573
7.7400, -1.9320, 1.9102, 0.9332, -0.3477, 0.4903, 0.1899, 29890, -0.3681, 1.3771, -1.3320, -2.9282, 0.3784, -0.4178
7.7600, -1.8906, 1.9062, 0.8426, -0.3213, 0.4416, 0.2246, 29910, -0.3547, 1.3867, -1.3291, -2.9278, 0.3432, -0.3828
7.7800, -1.8186, 1.8543, 0.7563, -0.2944, 0.3958, 0.2557, 29930, -0.3415, 1.3958, -1.3264, -2.9239, 0.3096, -0.3518
7.8000, -1.6944, 1.7465, 0.6158, -0.2379, 0.3129, 0.3070, 29970, -0.3274, 1.4049, -1.3246, -2.9240, 0.2752, -0.3176
7.8200, -1.6944, 1.7465, 0.6158, -0.2379, 0.3129, 0.3070, 29970, -0.3137, 1.4131, -1.3231, -2.9237, 0.2423, -0.2868
7.8400, -1.6517, 1.6839, 0.5338, -0.2093, 0.2756, 0.3279, 29990, -0.2997, 1.4216, -1.3219, -2.9216, 0.2115, -0.2570
7.8600, -1.5923, 1.6347, 0.4588, -0.1819, 0.2417, 0.3449, 30010, -0.2857, 1.4300, -1.3212, -2.9216, 0.1814, -0.2290
7.8800, -1.4665, 1.4939, 0.3069, -0.1260, 0.1782, 0.3725, 30050, -0.2714, 1.4375, -1.3207, -2.9204, 0.1531, -0.2024
7.9000, -1.4665, 1.4939, 0.3069, -0.1260, 0.1782, 0.3725, 30050, -0.2572, 1.4448, -1.3204, -2.9207, 0.1255, -0.1750
7.9200, -1.4646, 1.4477, 0.2360, -0.0976, 0.1473, 0.3824, 30070, -0.2572, 1.4448, -1.3204, -2.9207, 0.1255, -0.1750
7.9400, -1.4893, 1.4525, 0.1881, -0.0703, 0.1182, 0.3899, 30090, -0.2284, 1.4573, -1.3212, -2.9229, 0.0677, -0.1179
7.9600, -1.5372, 1.4477, 0.0591, -0.0162, 0.0599, 0.3988, 30130, -0.2133, 1.4631, -1.3222, -2.9248, 0.0390, -0.0893
7.9800, -1.5372, 1.4477, 0.0591, -0.0162, 0.0599, 0.3988, 30130, -0.1996, 1.4688, -1.3235, -2.9240, 0.0108, -0.0612
8.0000, -1.5116, 1.4678, -0.0019, 0.0133, 0.0286, 0.4002, 30150, -0.1855, 1.4736, -1.3255, -2.9262, -0.0210, -0.0306
8.0200, -1.5240, 1.5186, -0.0720, 0.0428, -0.0010, 0.3997, 30170, -0.1715, 1.4779, -1.3278, -2.9282, -0.0534, -0.0016
8.0400, -1.4928, 1.6874, -0.1844, 0.1056, -0.0609, 0.3924, 30210, -0.1578, 1.4817, -1.3303, -2.9322, -0.0867, 0.0262
8.0600, -1.4928, 1.6874, -0.1844, 0.1056, -0.0609, 0.3924, 30210, -0.1436, 1.4840, -1.3327, -2.9377, -0.1207, 0.0525
8.0800, -1.4474, 1.7764, -0.2263, 0.1391, -0.0906, 0.3855, 30230, -0.1305, 1.4861, -1.3357, -2.9402, -0.1582, 0.0803
8.1000, -1.3724, 1.8573, -0.2690, 0.1740, -0.1194, 0.3766, 30250, -0.1171, 1.4884, -1.3386, -2.9447, -0.1957, 0.1024
8.1200, -1.1364, 1.9298, -0.3556, 0.2450, -0.1726, 0.3522, 30290, -0.1045, 1.4897, -1.3423, -2.9468, -0.2329, 0.1273
8.1400, -1.1364, 1.9298, -0.3556, 0.2450, -0.1726, 0.3522, 30290, -0.0909, 1.4892, -1.3446, -2.9533, -0.2667, 0.1424
8.1600, -0.9964, 1.9411, -0.3811, 0.2805, -0.1965, 0.3372, 30310, -0.0784, 1.4893, -1.3482, -2.9574, -0.3049, 0.1634
8.1800, -0.8727, 1.9231, -0.4322, 0.3152, -0.2185, 0.3203, 30330, -0.0656, 1.4883, -1.3515, -2.9638, -0.3397, 0.1789
8.2000, -0.7279, 1.9102, -0.4744, 0.3492, -0.2391, 0.3018, 30350, -0.0534, 1.4868, -1.3545, -2.9722, -0.3742, 0.1928
8.2200, -0.7279, 1.9102, -0.4744, 0.3492, -0.2391, 0.3018, 30350, -0.0413, 1.4847, -1.3579, -2.9808, -0.4073, 0.2044
8.2400, -0.4360, 1.8492, -0.5257, 0.4142, -0.2751, 0.2604, 30390, -0.0292, 1.4817, -1.3610, -2.9921, -0.4389, 0.2130
8.2600, -0.2919, 1.8183, -0.5553, 0.4449, -0.2904, 0.2377, 30410, -0.0174, 1.4779, -1.3648, -3.0027, -0.4688, 0.2202
8.2800, -0.0398, 1.7293, -0.5900, 0.5032, -0.3156, 0.1890, 30450, -0.0061, 1.4739, -1.3685, -3.0129, -0.4993, 0.2256
8.3000, -0.0398, 1.7293, -0.5900, 0.5032, -0.3156, 0.1890, 30450, 0.0037, 1.4700, -1.3718, -3.0291, -0.5258, 0.2311
8.3200, 0.0769, 1.6928, -0.6139, 0.5306, -0.3262, 0.1634, 30470, 0.0142, 1.4645, -1.3751, -3.0422, -0.5535, 0.2341
8.3400, 0.1828, 1.6312, -0.6093, 0.5566, -0.3353, 0.1372, 30490, 0.0238, 1.4590, -1.3784, -3.0585, -0.5783, 0.2361
8.3600, 0.4137, 1.5533, -0.5854, 0.6060, -0.3494, 0.0843, 30530, 0.0334, 1.4527, -1.3814, -3.0746, -0.6018, 0.2359
8.3800, 0.4137, 1.5533, -0.5854, 0.6060, -0.3494, 0.0843, 30530, 0.0419, 1.4460, -1.3848, -3.0914, -0.6263, 0.2351
8.4000, 0.4843, 1.4923, -0.5548, 0.6294, -0.3540, 0.0581, 30550, 0.0504, 1.4381, -1.3876, -3.1091, -0.6474, 0.2340
8.4200, 0.5518, 1.4450, -0.5204, 0.6517, -0.3573, 0.0325, 30570, 0.0589, 1.4303, -1.3902, -3.1248, -0.6708, 0.2313
8.4400, 0.5800, 1.2807, -0.4155, 0.6938, -0.3615, 6.2684, 30610, 0.0663, 1.4215, -1.3925, -3.1402, -0.6876, 0.2287
8.4600, 0.5800, 1.2807, -0.4155, 0.6938, -0.3615, 6.2684, 30610, 0.0746, 1.4112, -1.3947, 3.1300, -0.7096, 0.2224
8.4800, 0.5873, 1.2181, -0.3575, 0.7133, -0.3622, 6.2469, 30630, 0.0810, 1.4012, -1.3968, 3.1164, -0.7261, 0.2191
8.5000, 0.6107, 1.1574, -0.2900, 0.7322, -0.3618, 6.2275, 30650, 0.0877, 1.3901, -1.3983, 3.1020, -0.7408, 0.2128
8.5200, 0.5752, 0.9778, -0.1430, 0.7669, -0.3580, 6.1954, 30690, 0.0938, 1.3780, -1.4002, 3.0939, -0.7572, 0.2074
8.5400, 0.5752, 0.9778, -0.1430, 0.7669, -0.3580, 6.1954, 30690, 0.0995, 1.3655, -1.4017, 3.0850, -0.7698, 0.2017
8.5600, 0.5445, 0.8719, -0.1072, 0.7814, -0.3547, 6.1835, 30710, 0.1032, 1.3527, -1.4026, 3.0773, -0.7776, 0.1963
8.5800, 0.4929, 0.7808, -0.0008, 0.7959, -0.3499, 6.1734, 30730, 0.1089, 1.3383, -1.4047, 3.0696, -0.7911, 0.1873
8.6100, 0.4991, 0.5432, 0.1341, 0.8186, -0.3349, 6.1636, 30770, 0.1133, 1.3239, -1.4056, 3.0630, -0.7993, 0.1804
8.6200, 0.4991, 0.5432, 0.1341, 0.8186, -0.3349, 6.1636, 30770, 0.1172, 1.3091, -1.4073, 3.0580, -0.8089, 0.1700
8.6400, 0.5150, 0.4478, 0.1774, 0.8271, -0.3245, 6.1631, 30790, 0.1207, 1.2935, -1.4088, 3.0533, -0.8149, 0.1577
8.6600, 0.5346, 0.3706, 0.2820, 0.8357, -0.3100, 6.1659, 30810, 0.1242, 1.2773, -1.4100, 3.0519, -0.8224, 0.1463
8.6800, 0.6230, 0.3158, 0.4475, 0.8507, -0.2738, 6.1806, 30850, 0.1269, 1.2610, -1.4117, 3.0471, -0.8280, 0.1300
8.7000, 0.6230, 0.3158, 0.4475, 0.8507, -0.2738, 6.1806, 30850, 0.1291, 1.2444, -1.4135, 3.0420, -0.8327, 0.1118
8.7200, 0.6835, 0.3104, 0.5384, 0.8578, -0.2508, 6.1919, 30870, 0.1311, 1.2278, -1.4155, 3.0388, -0.8371, 0.0940
8.7500, 0.8563, 0.1508, 0.6943, 0.8756, -0.1618, 6.2423, 30930, 0.1333, 1.2111, -1.4172, 3.0318, -0.8382, 0.0727
8.7700, 0.8563, 0.1508, 0.6943, 0.8756, -0.1618, 6.2423, 30930, 0.1347, 1.1943, -1.4190, 3.0265, -0.8398, 0.0517
8.7800, 0.8563, 0.1508, 0.6943, 0.8756, -0.1618, 6.2423, 30930, 0.1357, 1.1775, -1.4205, 3.0199, -0.8388, 0.0281
8.8100, 1.0281, -0.1191, 0.7069, 0.8774, -0.0929, 0.0014, 30970, 0.1359, 1.1608, -1.4222, 3.0122, -0.8355, 0.0041
8.8300, 1.2227, -0.4615, 0.6784, 0.8652, -0.0164, 0.0445, 31010, 0.1356, 1.1442, -1.4241, 3.0034, -0.8302, -0.0214
8.8400, 1.2227, -0.4615, 0.6784, 0.8652, -0.0164, 0.0445, 31010, 0.1350, 1.1275, -1.4265, 2.9926, -0.8190, -0.0485
8.8700, 1.3170, -0.6510, 0.6488, 0.8529, 0.0232, 0.0646, 31030, 0.1339, 1.1111, -1.4288, 2.9813, -0.8070, -0.0766
8.8900, 1.4071, -0.8940, 0.6351, 0.8357, 0.0627, 0.0824, 31050, 0.1324, 1.0955, -1.4307, 2.9696, -0.7892, -0.1034
8.9100, 1.5001, -1.3337, 0.5440, 0.7920, 0.1363, 0.1079, 31090, 0.1311, 1.0792, -1.4332, 2.9569, -0.7680, -0.1332
8.9200, 1.5001, -1.3337, 0.5440, 0.7920, 0.1363, 0.1079, 31090, 0.1298, 1.0636, -1.4360, 2.9448, -0.7416, -0.1601
8.9400, 1.5001, -1.3337, 0.5440, 0.7920, 0.1363, 0.1079, 31090, 0.1284, 1.0477, -1.4392, 2.9329, -0.7124, -0.1881
8.9600, 1.4976, -1.4877, 0.4838, 0.7620, 0.1724, 0.1157, 31110, 0.1271, 1.0320, -1.4417, 2.9225, -0.6848, -0.2146
8.9900, 1.3326, -1.6678, 0.3639, 0.6655, 0.2571, 0.1197, 31170, 0.1256, 1.0169, -1.4437, 2.9127, -0.6560, -0.2396
9.0000, 1.3326, -1.6678, 0.3639, 0.6655, 0.2571, 0.1197, 31170, 0.1238, 1.0015, -1.4459, 2.9039, -0.6272, -0.2644
9.0300, 1.2326, -1.6629, 0.3322, 0.6329, 0.2800, 0.1169, 31190, 0.1224, 0.9867, -1.4477, 2.8954, -0.5996, -0.2856
9.0500, 1.1533, -1.5912, 0.2809, 0.6013, 0.3004, 0.1131, 31210, 0.1201, 0.9711, -1.4495, 2.8896, -0.5715, -0.3070
9.0600, 1.1533, -1.5912, 0.2809, 0.6013, 0.3004, 0.1131, 31210, 0.1184, 0.9560, -1.4507, 2.8835, -0.5434, -0.3253
9.0900, 0.9211, -1.5068, 0.2027, 0.5411, 0.3327, 0.1025, 31250, 0.1165, 0.9408, -1.4517, 2.8798, -0.5149, -0.3414
9.1000, 0.9211, -1.5068, 0.2027, 0.5411, 0.3327, 0.1025, 31250, 0.1146, 0.9257, -1.4526, 2.8767, -0.4873, -0.3559
9.1200, 0.7840, -1.5065, 0.1739, 0.5126, 0.3447, 0.0955, 31270, 0.1127, 0.9107, -1.4532, 2.8744, -0.4593, -0.3673
9.1400, 0.6878, -1.4667, 0.1489, 0.4847, 0.3540, 0.0876, 31290, 0.1109, 0.8958, -1.4535, 2.8727, -0.4331, -0.3771
9.1700, 0.4521, -1.4173, 0.0387, 0.4316, 0.3660, 0.0696, 31330, 0.1086, 0.8809, -1.4536, 2.8716, -0.4059, -0.3850
9.1900, 0.3771, -1.4124, 0.0126, 0.4060, 0.3690, 0.0595, 31350, 0.1064, 0.8665, -1.4533, 2.8707, -0.3793, -0.3913
9.2100, 0.3139, -1.4315, -0.0228, 0.3805, 0.3705, 0.0487, 31370, 0.1044, 0.8520, -1.4531, 2.8696, -0.3519, -0.3965
9.2200, 0.3139, -1.4315, -0.0228, 0.3805, 0.3705, 0.0487, 31370, 0.1023, 0.8377, -1.4524, 2.8687, -0.3229, -0.4002
9.2500, 0.2613, -1.5759, -0.0661, 0.3271, 0.3704, 0.0248, 31410, 0.1003, 0.8235, -1.4521, 2.8673, -0.2911, -0.4046
9.2600, 0.2613, -1.5759, -0.0661, 0.3271, 0.3704, 0.0248, 31410, 0.0986, 0.8094, -1.4517, 2.8665, -0.2585, -0.4087
9.2800, 0.2674, -1.6799, -0.0645, 0.2988, 0.3700, 0.0113, 31430, 0.0978, 0.7953, -1.4520, 2.8662, -0.2230, -0.4151
9.3000, 0.3069, -1.7847, -0.0887, 0.2684, 0.3700, 6.2802, 31450, 0.0964, 0.7818, -1.4520, 2.8649, -0.1862, -0.4213
9.3200, 0.4464, -1.9737, -0.1263, 0.2026, 0.3747, 6.2490, 31490, 0.0942, 0.7688, -1.4524, 2.8611, -0.1487, -0.4306
9.3400, 0.4464, -1.9737, -0.1263, 0.2026, 0.3747, 6.2490, 31490, 0.0934, 0.7553, -1.4531, 2.8617, -0.1085, -0.4408
9.3600, 0.5497, -2.0331, -0.1118, 0.1674, 0.3803, 6.2324, 31510, 0.0921, 0.7427, -1.4540, 2.8605, -0.0678, -0.4544
9.3800, 0.6867, -2.1113, -0.1037, 0.1309, 0.3889, 6.2151, 31530, 0.0912, 0.7302, -1.4549, 2.8601, -0.0250, -0.4721
9.4000, 0.8389, -2.1769, -0.0879, 0.0932, 0.4007, 6.1975, 31550, 0.0904, 0.7180, -1.4561, 2.8608, 0.0193, -0.4920
9.4200, 0.9751, -2.2244, -0.0736, 0.0546, 0.4163, 6.1790, 31570, 0.0895, 0.7061, -1.4578, 2.8621, 0.0641, -0.5156
9.4500, 1.2119, -2.2895, -0.0527, -0.0237, 0.4571, 6.1395, 31610, 0.0887, 0.6942, -1.4593, 2.8659, 0.1126, -0.5379
9.4700, 1.3200, -2.3352, -0.0650, -0.0632, 0.4824, 6.1181, 31630, 0.0878, 0.6837, -1.4614, 2.8694, 0.1596, -0.5628
9.4800, 1.3200, -2.3352, -0.0650, -0.0632, 0.4824, 6.1181, 31630, 0.0876, 0.6728, -1.4638, 2.8754, 0.2067, -0.5892
9.5000, 1.4315, -2.3102, -0.0884, -0.1025, 0.5109, 6.0950, 31650, 0.0876, 0.6624, -1.4666, 2.8828, 0.2558, -0.6185
9.5200, 1.5162, -2.3516, -0.0860, -0.1410, 0.5424, 6.0706, 31670, 0.0876, 0.6523, -1.4696, 2.8923, 0.3059, -0.6480
9.5400, 1.5804, -2.3164, -0.1091, -0.1787, 0.5770, 6.0442, 31690, 0.0880, 0.6430, -1.4728, 2.9030, 0.3573, -0.6781
9.5600, 1.6546, -2.2887, -0.1484, -0.2128, 0.6123, 6.0177, 31710, 0.0886, 0.6339, -1.4763, 2.9168, 0.4077, -0.7089
9.5800, 1.6855, -2.2328, -0.1615, -0.2484, 0.6535, 5.9867, 31730, 0.0893, 0.6252, -1.4799, 2.9306, 0.4587, -0.7384
9.6000, 1.7070, -2.1591, -0.1935, -0.2793, 0.6941, 5.9559, 31750, 0.0901, 0.6170, -1.4835, 2.9462, 0.5088, -0.7685
9.6200, 1.7094, -2.0669, -0.2395, -0.3072, 0.7365, 5.9242, 31770, 0.0914, 0.6096, -1.4873, 2.9639, 0.5595, -0.7978
9.6500, 1.6742, -1.8833, -0.2989, -0.3534, 0.8238, 5.8589, 31810, 0.0929, 0.6023, -1.4911, 2.9826, 0.6091, -0.8257
9.6600, 1.6742, -1.8833, -0.2989, -0.3534, 0.8238, 5.8589, 31810, 0.0949, 0.5953, -1.4948, 3.0016, 0.6561, -0.8519
9.6800, 1.6078, -1.7401, -0.3134, -0.3718, 0.8671, 5.8261, 31830, 0.0974, 0.5887, -1.4986, 3.0202, 0.7007, -0.8773
9.7000, 1.5240, -1.6154, -0.3271, -0.3866, 0.9091, 5.7941, 31850, 0.1002, 0.5825, -1.5024, 3.0394, 0.7408, -0.9002
9.7200, 1.4592, -1.4482, -0.3271, -0.3986, 0.9496, 5.7641, 31870, 0.1028, 0.5767, -1.5058, 3.0632, 0.7834, -0.9240
9.7400, 1.4076, -1.3197, -0.3451, -0.4075, 0.9886, 5.7357, 31890, 0.1063, 0.5711, -1.5091, 3.0842, 0.8219, -0.9450
9.7600, 1.3251, -1.1509, -0.3508, -0.4133, 1.0233, 5.7109, 31910, 0.1101, 0.5660, -1.5123, 3.1035, 0.8532, -0.9644
9.7800, 1.2496, -0.9359, -0.3475, -0.4170, 1.0585, 5.6868, 31930, 0.1139, 0.5614, -1.5152, 3.1263, 0.8834, -0.9825
9.8000, 1.1627, -0.6937, -0.3150, -0.4175, 1.0887, 5.6685, 31950, 0.1183, 0.5574, -1.5176, -3.1338, 0.9134, -0.9992
9.8200, 1.0880, -0.4784, -0.2975, -0.4164, 1.1156, 5.6545, 31970, 0.1232, 0.5539, -1.5196, -3.1107, 0.9369, -1.0143
9.8400, 1.0235, -0.2484, -0.2543, -0.4140, 1.1397, 5.6454, 31990, 0.1287, 0.5506, -1.5214, -3.0907, 0.9529, -1.0269
9.8600, 0.9483, -0.0258, -0.1728, -0.4107, 1.1601, 5.6416, 32010, 0.1347, 0.5478, -1.5229, -3.0685, 0.9650, -1.0379
9.8800, 0.7875, 0.4690, -0.0398, -0.4019, 1.1893, 5.6500, 32050, 0.1411, 0.5458, -1.5241, -3.0458, 0.9698, -1.0480
9.9000, 0.7875, 0.4690, -0.0398, -0.4019, 1.1893, 5.6500, 32050, 0.1477, 0.5444, -1.5246, -3.0200, 0.9774, -1.0561
9.9200, 0.7762, 0.6964, 0.0419, -0.3972, 1.1994, 5.6622, 32070, 0.1544, 0.5438, -1.5246, -2.9908, 0.9844, -1.0634
9.9500, 0.7284, 1.1326, 0.2045, -0.3887, 1.2128, 5.7016, 32110, 0.1614, 0.5438, -1.5243, -2.9653, 0.9830, -1.0686
9.9600, 0.7284, 1.1326, 0.2045, -0.3887, 1.2128, 5.7016, 32110, 0.1676, 0.5446, -1.5235, -2.9297, 0.9813, -1.0766
9.9800, 0.7464, 1.3557, 0.2707, -0.3850, 1.2165, 5.7290, 32130, 0.1746, 0.5461, -1.5226, -2.8931, 0.9847, -1.0833
10.0100, 0.7891, 1.5280, 0.3225, -0.3814, 1.2193, 5.7606, 32150, 0.1815, 0.5484, -1.5213, -2.8610, 0.9798, -1.0883
10.0200, 0.7891, 1.5280, 0.3225, -0.3814, 1.2193, 5.7606, 32150, 0.1887, 0.5512, -1.5200, -2.8292, 0.9738, -1.0932
10.0400, 0.7891, 1.5280, 0.3225, -0.3814, 1.2193, 5.7606, 32150, 0.1960, 0.5548, -1.5183, -2.7923, 0.9721, -1.0991
10.0600, 0.8695, 1.8143, 0.3927, -0.3698, 1.2249, 5.8727, 32210, 0.2032, 0.5591, -1.5165, -2.7514, 0.9739, -1.1064
10.0800, 0.9367, 1.8299, 0.3927, -0.3660, 1.2277, 5.9125, 32230, 0.2105, 0.5641, -1.5145, -2.7079, 0.9777, -1.1142
10.1000, 1.0044, 1.8484, 0.3940, -0.3623, 1.2319, 5.9524, 32250, 0.2165, 0.5692, -1.5122, -2.6495, 0.9945, -1.1253
10.1200, 1.0993, 1.8331, 0.3922, -0.3588, 1.2378, 5.9926, 32270, 0.2231, 0.5754, -1.5100, -2.5978, 1.0069, -1.1353
10.1400, 1.1966, 1.8444, 0.3712, -0.3553, 1.2460, 6.0326, 32290, 0.2293, 0.5820, -1.5076, -2.5378, 1.0266, -1.1472
10.1600, 1.3135, 1.8331, 0.3736, -0.3520, 1.2561, 6.0727, 32310, 0.2352, 0.5894, -1.5052, -2.4781, 1.0464, -1.1586
10.1800, 1.3837, 1.8624, 0.3462, -0.3489, 1.2683, 6.1127, 32330, 0.2405, 0.5975, -1.5031, -2.4119, 1.0710, -1.1712
10.2000, 1.4089, 1.8670, 0.3075, -0.3454, 1.2814, 6.1526, 32350, 0.2454, 0.6064, -1.5009, -2.3401, 1.1022, -1.1844
10.2300, 1.4517, 1.8597, 0.2559, -0.3417, 1.2956, 6.1924, 32370, 0.2507, 0.6162, -1.4987, -2.2624, 1.1412, -1.1963
10.2500, 1.5092, 1.7398, 0.1798, -0.3337, 1.3278, 6.2692, 32410, 0.2548, 0.6265, -1.4966, -2.1804, 1.1850, -1.2087
10.2600, 1.5092, 1.7398, 0.1798, -0.3337, 1.3278, 6.2692, 32410, 0.2581, 0.6378, -1.4946, -2.1032, 1.2241, -1.2217
10.2800, 1.5323, 1.6855, 0.1339, -0.3304, 1.3446, 0.0204, 32430, 0.2619, 0.6490, -1.4922, -2.0160, 1.2731, -1.2312
10.3000, 1.5409, 1.7025, 0.1339, -0.3271, 1.3636, 0.0581, 32450, 0.2652, 0.6612, -1.4899, -1.9226, 1.3268, -1.2405
10.3200, 1.6078, 1.7925, 0.1570, -0.3245, 1.3820, 0.0953, 32470, 0.2681, 0.6741, -1.4872, -1.8201, 1.3881, -1.2476
10.3400, 1.6584, 1.8317, 0.1634, -0.3225, 1.4013, 0.1335, 32490, 0.2706, 0.6876, -1.4844, -1.7114, 1.4526, -1.2526
10.3600, 1.7258, 1.9540, 0.1637, -0.3211, 1.4214, 0.1738, 32510, 0.2725, 0.7015, -1.4814, -1.6041, 1.5145, -1.2549
10.3800, 1.7027, 2.0546, 0.2083, -0.3206, 1.4411, 0.2164, 32530, 0.2742, 0.7156, -1.4785, -1.5013, 1.5701, -1.2552
10.4000, 1.6627, 2.1583, 0.2298, -0.3211, 1.4596, 0.2616, 32550, 0.2758, 0.7304, -1.4755, -1.4055, 1.6170, -1.2537
10.4300, 1.5132, 2.3553, 0.2750, -0.3246, 1.4900, 0.3583, 32590, 0.2769, 0.7456, -1.4723, -1.3123, 1.6590, -1.2497
10.4500, 1.4022, 2.4524, 0.3002, -0.3278, 1.5015, 0.4095, 32610, 0.2779, 0.7611, -1.4690, -1.2252, 1.6942, -1.2447
10.4600, 1.4022, 2.4524, 0.3002, -0.3278, 1.5015, 0.4095, 32610, 0.2787, 0.7770, -1.4657, -1.1476, 1.7170, -1.2389
10.4800, 1.2958, 2.5919, 0.3325, -0.3300, 1.5102, 0.4632, 32630, 0.2797, 0.7935, -1.4624, -1.0849, 1.7244, -1.2327
10.5100, 0.9458, 2.8370, 0.3922, -0.3358, 1.5153, 0.5758, 32670, 0.2801, 0.8094, -1.4592, -1.0316, 1.7185, -1.2260
10.5200, 0.9458, 2.8370, 0.3922, -0.3358, 1.5153, 0.5758, 32670, 0.2807, 0.8266, -1.4564, -0.9877, 1.7016, -1.2195
10.5400, 0.7647, 2.9724, 0.4137, -0.3393, 1.5123, 0.6411, 32690, 0.2809, 0.8441, -1.4534, -0.9563, 1.6670, -1.2144
10.5700, 0.4335, 3.3194, 0.4913, -0.3464, 1.4921, 0.7760, 32730, 0.2809, 0.8621, -1.4500, -0.9342, 1.6219, -1.2092
10.5900, 0.4335, 3.3194, 0.4913, -0.3464, 1.4921, 0.7760, 32730, 0.2801, 0.8800, -1.4469, -0.9201, 1.5643, -1.2035
10.6000, 0.2779, 3.5210, 0.4776, -0.3485, 1.4741, 0.8458, 32750, 0.2793, 0.8989, -1.4431, -0.9148, 1.4952, -1.1987
10.6200, 0.0874, 3.7533, 0.4647, -0.3491, 1.4488, 0.9283, 32770, 0.2785, 0.9180, -1.4393, -0.9233, 1.4086, -1.1955
10.6500, -0.3446, 4.1954, 0.4083, -0.3407, 1.3844, 1.0994, 32810, 0.2777, 0.9375, -1.4354, -0.9336, 1.3170, -1.1907
10.6700, -0.5725, 4.4034, 0.3930, -0.3304, 1.3444, 1.1907, 32830, 0.2766, 0.9570, -1.4311, -0.9591, 1.2068, -1.1853
10.6800, -0.5725, 4.4034, 0.3930, -0.3304, 1.3444, 1.1907, 32830, 0.2756, 0.9753, -1.4272, -1.0121, 1.0655, -1.1784
10.7000, -0.8719, 4.6050, 0.3537, -0.3150, 1.2996, 1.2844, 32850, 0.2762, 0.9951, -1.4223, -1.0649, 0.9227, -1.1647
10.7300, -1.6009, 4.7123, 0.1519, -0.2655, 1.1954, 1.4739, 32890, 0.2768, 1.0148, -1.4177, -1.1285, 0.7751, -1.1472
10.7500, -1.7202, 4.5222, 0.0016, -0.2316, 1.1411, 1.5624, 32910, 0.2770, 1.0358, -1.4127, -1.1884, 0.6361, -1.1260
10.7700, -1.7903, 4.2070, -0.1454, -0.1932, 1.0928, 1.6375, 32930, 0.2771, 1.0568, -1.4073, -1.2481, 0.5061, -1.1039
10.7900, -1.7903, 4.2070, -0.1454, -0.1932, 1.0928, 1.6375, 32930, 0.2766, 1.0796, -1.4009, -1.3003, 0.3908, -1.0795
10.8100, -1.6466, 3.4573, -0.5077, -0.1018, 1.0008, 1.7666, 32970, 0.2755, 1.1036, -1.3943, -1.3462, 0.2875, -1.0542
10.8200, -1.6466, 3.4573, -0.5077, -0.1018, 1.0008, 1.7666, 32970, 0.2746, 1.1278, -1.3875, -1.3881, 0.1935, -1.0311
10.8500, -1.4178, 3.0114, -0.7843, -0.0073, 0.9334, 1.8558, 33010, 0.2726, 1.1518, -1.3811, -1.4300, 0.1005, -1.0087
10.8700, -1.1813, 2.9515, -0.8442, 0.0401, 0.9095, 1.8926, 33030, 0.2706, 1.1767, -1.3748, -1.4691, 0.0105, -0.9895
10.8900, -1.0007, 3.1041, -0.9117, 0.0887, 0.8922, 1.9263, 33050, 0.2685, 1.2008, -1.3684, -1.5070, -0.0823, -0.9715
10.9100, -0.7413, 3.2875, -0.9475, 0.1454, 0.8796, 1.9654, 33070, 0.2660, 1.2253, -1.3626, -1.5418, -0.1752, -0.9575
10.9300, -0.4919, 3.4649, -0.9464, 0.2023, 0.8749, 2.0050, 33090, 0.2632, 1.2499, -1.3575, -1.5776, -0.2703, -0.9465
10.9500, -0.2196, 3.6156, -0.9641, 0.2620, 0.8779, 2.0476, 33110, 0.2603, 1.2743, -1.3529, -1.6155, -0.3690, -0.9371
10.9700, -0.2196, 3.6156, -0.9641, 0.2620, 0.8779, 2.0476, 33110, 0.2562, 1.2988, -1.3490, -1.6545, -0.4760, -0.9326
10.9900, 0.3661, 3.9476, -0.9835, 0.3873, 0.9123, 2.1448, 33150, 0.2523, 1.3226, -1.3455, -1.6996, -0.5868, -0.9298
11.0100, 0.6206, 3.9317, -0.9950, 0.4505, 0.9449, 2.1995, 33170, 0.2484, 1.3465, -1.3426, -1.7494, -0.6971, -0.9270
11.0300, 0.8117, 3.7473, -1.0692, 0.5112, 0.9858, 2.2562, 33190, 0.2445, 1.3693, -1.3414, -1.8005, -0.8099, -0.9206
11.0500, 0.9673, 3.5560, -1.1265, 0.5685, 1.0334, 2.3133, 33210, 0.2391, 1.3924, -1.3407, -1.8540, -0.9219, -0.9131
11.0700, 1.1536, 3.3197, -1.1756, 0.6220, 1.0875, 2.3712, 33230, 0.2346, 1.4146, -1.3412, -1.9163, -1.0273, -0.9032
11.0900, 1.3294, 3.0888, -1.2144, 0.6714, 1.1477, 2.4291, 33250, 0.2295, 1.4360, -1.3420, -1.9757, -1.1285, -0.8908
11.1100, 1.4622, 2.8391, -1.2498, 0.7166, 1.2132, 2.4867, 33270, 0.2239, 1.4566, -1.3440, -2.0363, -1.2264, -0.8751
11.1300, 1.6259, 2.7273, -1.2735, 0.7582, 1.2844, 2.5457, 33290, 0.2176, 1.4760, -1.3465, -2.0971, -1.3208, -0.8559
11.1500, 1.7624, 2.6652, -1.2810, 0.7960, 1.3628, 2.6086, 33310, 0.2118, 1.4939, -1.3496, -2.1574, -1.4156, -0.8345
11.1700, 1.9016, 2.6359, -1.2778, 0.8297, 1.4500, 2.6772, 33330, 0.2052, 1.5112, -1.3537, -2.2190, -1.5050, -0.8085
11.1900, 2.0763, 2.5421, -1.2686, 0.8591, 1.5458, 2.7508, 33350, 0.1973, 1.5270, -1.3572, -2.2788, -1.5949, -0.7816
11.2100, 2.0763, 2.5421, -1.2686, 0.8591, 1.5458, 2.7508, 33350, 0.1884, 1.5425, -1.3609, -2.3387, -1.6779, -0.7517
11.2300, 2.3766, 2.2836, -1.2079, 0.9015, 1.7563, 2.9044, 33390, 0.1794, 1.5565, -1.3657, -2.3944, -1.7567, -0.7150
11.2500, 2.4032, 2.1779, -1.1563, 0.9144, 1.8665, 2.9824, 33410, 0.1706, 1.5702, -1.3707, -2.4447, -1.8265, -0.6778
11.2700, 2.3682, 2.1231, -1.1060, 0.9208, 1.9710, 3.0562, 33430, 0.1621, 1.5827, -1.3763, -2.4902, -1.8895, -0.6405
11.2900, 2.3583, 2.0551, -1.0238, 0.9217, 2.0850, 3.1360, 33450, 0.1538, 1.5941, -1.3811, -2.5319, -1.9525, -0.6046
11.3100, 2.3526, 1.9790, -0.9297, 0.9166, 2.1902, 3.2081, 33470, 0.1456, 1.6039, -1.3862, -2.5709, -2.0095, -0.5670
11.3300, 2.3827, 1.9054, -0.8287, 0.9060, 2.2909, 3.2748, 33490, 0.1368, 1.6147, -1.3915, -2.6083, -2.0643, -0.5279
11.3500, 2.4279, 1.7769, -0.7171, 0.8910, 2.3850, 3.3329, 33510, 0.1286, 1.6224, -1.3963, -2.6465, -2.1116, -0.4903
11.3700, 2.4688, 1.5812, -0.5924, 0.8734, 2.4717, 3.3816, 33530, 0.1195, 1.6309, -1.4007, -2.6819, -2.1558, -0.4519
11.3900, 2.4446, 1.3719, -0.4626, 0.8571, 2.5499, 3.4200, 33550, 0.1103, 1.6373, -1.4050, -2.7181, -2.1943, -0.4154
11.4100, 2.4446, 1.3719, -0.4626, 0.8571, 2.5499, 3.4200, 33550, 0.1011, 1.6431, -1.4084, -2.7513, -2.2284, -0.3810
11.4300, 2.2779, 0.8416, -0.2075, 0.8240, 2.6808, 3.4685, 33590, 0.0916, 1.6485, -1.4114, -2.7863, -2.2508, -0.3470
11.4500, 2.1653, 0.4430, -0.0392, 0.8130, 2.7328, 3.4781, 33610, 0.0821, 1.6533, -1.4141, -2.8199, -2.2640, -0.3204
11.4700, 2.0231, -0.0075, 0.1201, 0.8088, 2.7752, 3.4779, 33630, 0.0723, 1.6574, -1.4165, -2.8510, -2.2697, -0.2977
11.4900, 1.8672, -0.4161, 0.2752, 0.8109, 2.8082, 3.4690, 33650, 0.0634, 1.6611, -1.4176, -2.8852, -2.2681, -0.2840
11.5100, 1.6906, -0.8050, 0.4139, 0.8194, 2.8304, 3.4530, 33670, 0.0537, 1.6641, -1.4192, -2.9151, -2.2567, -0.2723
11.5300, 1.4735, -1.1571, 0.5706, 0.8353, 2.8451, 3.4278, 33690, 0.0429, 1.6659, -1.4205, -2.9384, -2.2375, -0.2659
11.5500, 1.2953, -1.3942, 0.6991, 0.8557, 2.8499, 3.3969, 33710, 0.0341, 1.6675, -1.4212, -2.9712, -2.2184, -0.2619
11.5700, 1.1345, -1.5820, 0.8179, 0.8793, 2.8463, 3.3599, 33730, 0.0247, 1.6687, -1.4216, -2.9985, -2.1942, -0.2653
11.5900, 1.0066, -1.7645, 0.9031, 0.9041, 2.8356, 3.3191, 33750, 0.0145, 1.6686, -1.4210, -3.0259, -2.1661, -0.2715
11.6100, 0.9195, -1.9806, 0.9848, 0.9350, 2.8152, 3.2666, 33770, 0.0050, 1.6677, -1.4199, -3.0547, -2.1323, -0.2857
11.6300, 0.8472, -2.1841, 1.0692, 0.9673, 2.7861, 3.2076, 33790, -0.0050, 1.6677, -1.4189, -3.0810, -2.0989, -0.2956
11.6500, 0.7727, -2.3416, 1.1238, 1.0009, 2.7466, 3.1395, 33810, -0.0148, 1.6662, -1.4163, -3.1049, -2.0555, -0.3058
11.6700, 0.7483, -2.4411, 1.1560, 1.0346, 2.6962, 3.0618, 33830, -0.0246, 1.6637, -1.4154, -3.1322, -2.0205, -0.3223
11.6900, 0.7050, -2.5566, 1.1740, 1.0674, 2.6342, 2.9730, 33850, -0.0357, 1.6624, -1.4138, 3.1272, -1.9837, -0.3396
11.7100, 0.6515, -2.6104, 1.1832, 1.0987, 2.5592, 2.8714, 33870, -0.0357, 1.6624, -1.4138, 3.1272, -1.9837, -0.3396
11.7300, 0.6470, -2.7072, 1.1856, 1.1268, 2.4696, 2.7566, 33890, -0.0550, 1.6581, -1.4091, 3.0754, -1.8981, -0.3794
11.7500, 0.6835, -2.7394, 1.1555, 1.1512, 2.3658, 2.6276, 33910, -0.0651, 1.6557, -1.4068, 3.0506, -1.8574, -0.3997
11.7700, 0.7117, -2.7448, 1.1445, 1.1699, 2.2494, 2.4857, 33930, -0.0761, 1.6536, -1.4048, 3.0305, -1.8123, -0.4208
11.7900, 0.7117, -2.7448, 1.1445, 1.1699, 2.2494, 2.4857, 33930, -0.0864, 1.6516, -1.4029, 3.0090, -1.7704, -0.4393
11.8100, 0.6545, -2.6545, 1.0378, 1.1879, 1.9951, 2.1803, 33970, -0.0977, 1.6498, -1.3989, 2.9971, -1.7303, -0.4653
11.8300, 0.5999, -2.5972, 0.9921, 1.1866, 1.8675, 2.0289, 33990, -0.1105, 1.6465, -1.3980, 2.9954, -1.6984, -0.4767
11.8500, 0.5110, -2.5953, 0.8961, 1.1802, 1.7492, 1.8897, 34010, -0.1203, 1.6434, -1.3951, 2.9831, -1.6560, -0.4962
11.8700, 0.5110, -2.5953, 0.8961, 1.1802, 1.7492, 1.8897, 34010, -0.1305, 1.6403, -1.3926, 2.9720, -1.6115, -0.5148
11.8900, 0.4083, -2.6400, 0.8432, 1.1675, 1.6223, 1.7413, 34030, -0.1405, 1.6370, -1.3901, 2.9701, -1.5623, -0.5325
11.9100, 0.1556, -2.8547, 0.6994, 1.1287, 1.3947, 1.4767, 34070, -0.1459, 1.6334, -1.3878, 2.9453, -1.4948, -0.5513
11.9300, 0.0314, -2.9813, 0.6604, 1.1029, 1.2875, 1.3535, 34090, -0.1527, 1.6303, -1.3855, 2.9447, -1.4284, -0.5720
11.9500, -0.0895, -3.1329, 0.6217, 1.0715, 1.1853, 1.2367, 34110, -0.1622, 1.6274, -1.3842, 2.9507, -1.3645, -0.5875
11.9700, -0.1860, -3.2872, 0.5685, 1.0364, 1.0936, 1.1325, 34130, -0.1719, 1.6252, -1.3835, 2.9646, -1.2934, -0.6009
11.9900, -0.3000, -3.4197, 0.5765, 0.9913, 1.0006, 1.0270, 34150, -0.1810, 1.6228, -1.3827, 2.9810, -1.2192, -0.6133
12.0100, -0.3841, -3.5277, 0.5790, 0.9430, 0.9214, 0.9367, 34170, -0.1901, 1.6207, -1.3821, 2.9991, -1.1423, -0.6251
12.0300, -0.4698, -3.6409, 0.5784, 0.8898, 0.8507, 0.8564, 34190, -0.2010, 1.6207, -1.3832, 3.0316, -1.0428, -0.6271
12.0500, -0.5526, -3.7541, 0.5752, 0.8318, 0.7877, 0.7844, 34210, -0.2010, 1.6207, -1.3832, 3.0316, -1.0428, -0.6271
12.0600, -0.5526, -3.7541, 0.5752, 0.8318, 0.7877, 0.7844, 34210, -0.2010, 1.6207, -1.3832, 3.0316, -1.0428, -0.6271
12.0900, -0.6322, -3.8567, 0.6295, 0.7048, 0.6831, 0.6644, 34250, -0.2272, 1.6178, -1.3832, 3.1061, -0.7934, -0.6441
12.1100, -0.6279, -3.8707, 0.6370, 0.6369, 0.6412, 0.6149, 34270, -0.2351, 1.6181, -1.3837, 3.1344, -0.7046, -0.6464
12.1300, -0.6064, -3.8204, 0.6733, 0.5679, 0.6060, 0.5721, 34290, -0.2419, 1.6182, -1.3848, -3.1225, -0.6225, -0.6516
12.1500, -0.5497, -3.7097, 0.7101, 0.4985, 0.5775, 0.5356, 34310, -0.2482, 1.6198, -1.3850, -3.0968, -0.5431, -0.6552
12.1700, -0.4959, -3.5447, 0.7760, 0.4302, 0.5548, 0.5047, 34330, -0.2482, 1.6198, -1.3850, -3.0968, -0.5431, -0.6552
12.1900, -0.4008, -3.3923, 0.8184, 0.3639, 0.5376, 0.4789, 34350, -0.2619, 1.6263, -1.3867, -3.0403, -0.3771, -0.6572
12.2100, -0.2666, -3.1877, 0.8639, 0.2998, 0.5239, 0.4578, 34370, -0.2682, 1.6318, -1.3873, -3.0069, -0.3010, -0.6595
12.2300, -0.1607, -2.9851, 0.9211, 0.2417, 0.5150, 0.4414, 34390, -0.2733, 1.6362, -1.3877, -2.9871, -0.2314, -0.6652
12.2500, -0.0218, -2.7491, 0.9665, 0.1810, 0.5096, 0.4273, 34410, -0.2794, 1.6429, -1.3877, -2.9578, -0.1647, -0.6711
12.2700, 0.1016, -2.5464, 1.0184, 0.1267, 0.5079, 0.4173, 34430, -0.2846, 1.6514, -1.3877, -2.9292, -0.1012, -0.6771
12.2900, 0.1314, -2.3333, 1.0509, 0.0754, 0.5084, 0.4100, 34450, -0.2897, 1.6607, -1.3882, -2.8992, -0.0410, -0.6768
12.3100, 0.1441, -2.1341, 1.0684, 0.0272, 0.5098, 0.4049, 34470, -0.2938, 1.6715, -1.3880, -2.8699, 0.0157, -0.6798
12.3300, 0.1330, -1.9565, 1.1039, -0.0178, 0.5114, 0.4023, 34490, -0.2980, 1.6834, -1.3876, -2.8388, 0.0691, -0.6819
12.3500, 0.0806, -1.8317, 1.1160, -0.0606, 0.5123, 0.4013, 34510, -0.3013, 1.6967, -1.3874, -2.8088, 0.1205, -0.6811
12.3700, 0.0065, -1.7019, 1.1020, -0.1014, 0.5123, 0.4016, 34530, -0.3045, 1.7110, -1.3871, -2.7802, 0.1686, -0.6759
12.3900, -0.1333, -1.6065, 1.1157, -0.1403, 0.5098, 0.4030, 34550, -0.3069, 1.7268, -1.3866, -2.7507, 0.2149, -0.6712
12.4100, -0.3104, -1.4842, 1.0869, -0.1772, 0.5039, 0.4053, 34570, -0.3090, 1.7434, -1.3860, -2.7244, 0.2575, -0.6618
12.4300, -0.5564, -1.3751, 1.1004, -0.2117, 0.4932, 0.4088, 34590, -0.3090, 1.7434, -1.3860, -2.7244, 0.2575, -0.6618
12.4500, -0.7343, -1.2286, 1.0732, -0.2438, 0.4777, 0.4140, 34610, -0.3090, 1.7434, -1.3860, -2.7244, 0.2575, -0.6618
12.4700, -0.9055, -1.0931, 1.0585, -0.2731, 0.4581, 0.4208, 34630, -0.3090, 1.7434, -1.3860, -2.7244, 0.2575, -0.6618
12.4900, -0.9837, -0.9902, 1.0308, -0.2998, 0.4356, 0.4292, 34650, -0.3090, 1.7434, -1.3860, -2.7244, 0.2575, -0.6618
12.5100, -1.0370, -0.8612, 1.0028, -0.3238, 0.4109, 0.4388, 34670, -0.3090, 1.7434, -1.3860, -2.7244, 0.2575, -0.6618
12.5300, -1.0550, -0.7701, 0.9700, -0.3451, 0.3850, 0.4494, 34690, -0.3090, 1.7434, -1.3860, -2.7244, 0.2575, -0.6618
12.5500, -1.0273, -0.6212, 0.9604, -0.3637, 0.3583, 0.4613, 34710, -0.3090, 1.7434, -1.3860, -2.7244, 0.2575, -0.6618
12.5700, -1.0028, -0.4798, 0.9184, -0.3789, 0.3314, 0.4744, 34730, -0.3215, 1.9172, -1.3800, -2.6061, 0.4463, -0.4683
12.5900, -0.9897, -0.2817, 0.8832, -0.3906, 0.3044, 0.4885, 34750, -0.3231, 1.9425, -1.3792, -2.5916, 0.4534, -0.4407
12.6100, -0.9612, -0.1269, 0.8488, -0.3983, 0.2789, 0.5035, 34770, -0.3231, 1.9425, -1.3792, -2.5916, 0.4534, -0.4407
12.6300, -0.9665, 0.0723, 0.8141, -0.4019, 0.2539, 0.5189, 34790, -0.3231, 1.9425, -1.3792, -2.5916, 0.4534, -0.4407
12.6500, -0.9606, 0.2553, 0.7698, -0.4013, 0.2288, 0.5348, 34810, -0.3231, 1.9425, -1.3792, -2.5916, 0.4534, -0.4407
12.6700, -0.9612, 0.4413, 0.7574, -0.3972, 0.2053, 0.5498, 34830, -0.3231, 1.9425, -1.3792, -2.5916, 0.4534, -0.4407
12.6900, -0.9319, 0.6330, 0.7021, -0.3883, 0.1796, 0.5664, 34850, -0.3231, 1.9425, -1.3792, -2.5916, 0.4534, -0.4407
12.7100, -0.8751, 0.7881, 0.6881, -0.3759, 0.1566, 0.5819, 34870, -0.3231, 1.9425, -1.3792, -2.5916, 0.4534, -0.4407
12.7300, -0.7840, 0.9552, 0.6569, -0.3594, 0.1353, 0.5969, 34890, -0.3231, 1.9425, -1.3792, -2.5916, 0.4534, -0.4407
12.7500, -0.7055, 1.1197, 0.6470, -0.3393, 0.1159, 0.6116, 34910, -0.3231, 1.9425, -1.3792, -2.5916, 0.4534, -0.4407
12.7600, -0.7055, 1.1197, 0.6470, -0.3393, 0.1159, 0.6116, 34910, -0.3231, 1.9425, -1.3792, -2.5916, 0.4534, -0.4407
12.7900, -0.4817, 1.4377, 0.6158, -0.2890, 0.0848, 0.6393, 34950, -0.3231, 1.9425, -1.3792, -2.5916, 0.4534, -0.4407
12.8100, -0.3338, 1.5804, 0.6128, -0.2590, 0.0740, 0.6524, 34970, -0.3231, 1.9425, -1.3792, -2.5916, 0.4534, -0.4407
12.8300, -0.2059, 1.7221, 0.5714, -0.2272, 0.0661, 0.6650, 34990, -0.3231, 1.9425, -1.3792, -2.5916, 0.4534, -0.4407
12.8500, -0.0511, 1.8234, 0.5878, -0.1936, 0.0616, 0.6772, 35010, -0.3231, 1.9425, -1.3792, -2.5916, 0.4534, -0.4407
12.8700, -0.0511, 1.8234, 0.5878, -0.1936, 0.0616, 0.6772, 35010, -0.3231, 1.9425, -1.3792, -2.5916, 0.4534, -0.4407
12.8900, 0.0239, 1.8782, 0.5725, -0.1580, 0.0599, 0.6892, 35030, -0.3231, 1.9425, -1.3792, -2.5916, 0.4534, -0.4407
12.9100, 0.0228, 1.9016, 0.5674, -0.0846, 0.0595, 0.7128, 35070, -0.3231, 1.9425, -1.3792, -2.5916, 0.4534, -0.4407
12.9300, 0.0228, 1.9016, 0.5674, -0.0846, 0.0595, 0.7128, 35070, -0.3231, 1.9425, -1.3792, -2.5916, 0.4534, -0.4407
12.9500, -0.0922, 1.8514, 0.5798, -0.0133, 0.0592, 0.7360, 35110, -0.3231, 1.9425, -1.3792, -2.5916, 0.4534, -0.4407
12.9700, -0.1153, 1.7726, 0.5618, 0.0192, 0.0583, 0.7472, 35130, -0.3231, 1.9425, -1.3792, -2.5916, 0.4534, -0.4407
12.9900, -0.1653, 1.7017, 0.5913, 0.0534, 0.0572, 0.7596, 35150, -0.3231, 1.9425, -1.3792, -2.5916, 0.4534, -0.4407
13.0100, -0.2795, 1.6527, 0.5865, 0.0850, 0.0552, 0.7711, 35170, -0.3231, 1.9425, -1.3792, -2.5916, 0.4534, -0.4407
13.0300, -0.3836, 1.6170, 0.6080, 0.1157, 0.0510, 0.7830, 35190, -0.3231, 1.9425, -1.3792, -2.5916, 0.4534, -0.4407
13.0500, -0.4682, 1.6073, 0.6217, 0.1461, 0.0454, 0.7950, 35210, -0.3231, 1.9425, -1.3792, -2.5916, 0.4534, -0.4407
13.0700, -0.5316, 1.5998, 0.6246, 0.1765, 0.0387, 0.8070, 35230, -0.3231, 1.9425, -1.3792, -2.5916, 0.4534, -0.4407
13.0800, -0.5316, 1.5998, 0.6246, 0.1765, 0.0387, 0.8070, 35230, -0.3231, 1.9425, -1.3792, -2.5916, 0.4534, -0.4407
13.1100, -0.7547, 1.5643, 0.6905, 0.2356, 0.0215, 0.8313, 35270, -0.3231, 1.9425, -1.3792, -2.5916, 0.4534, -0.4407
13.1300, -0.7547, 1.5643, 0.6905, 0.2356, 0.0215, 0.8313, 35270, -0.3231, 1.9425, -1.3792, -2.5916, 0.4534, -0.4407
13.1500, -1.0781, 1.3767, 0.7529, 0.2943, -0.0059, 0.8589, 35310, -0.3231, 1.9425, -1.3792, -2.5916, 0.4534, -0.4407
13.1600, -1.0781, 1.3767, 0.7529, 0.2943, -0.0059, 0.8589, 35310, -0.3231, 1.9425, -1.3792, -2.5916, 0.4534, -0.4407
13.1800, -1.2662, 1.2743, 0.8166, 0.3203, -0.0239, 0.8732, 35330, -0.3231, 1.9425, -1.3792, -2.5916, 0.4534, -0.4407
13.2100, -1.4968, 0.9929, 0.9010, 0.3655, -0.0672, 0.9041, 35370, -0.3231, 1.9425, -1.3792, -2.5916, 0.4534, -0.4407
13.2300, -1.5501, 0.8770, 0.9423, 0.3845, -0.0902, 0.9208, 35390, -0.3231, 1.9425, -1.3792, -2.5916, 0.4534, -0.4407
13.2500, -1.5831, 0.7832, 1.0069, 0.4019, -0.1131, 0.9381, 35410, -0.3231, 1.9425, -1.3792, -2.5916, 0.4534, -0.4407
13.2600, -1.5831, 0.7832, 1.0069, 0.4019, -0.1131, 0.9381, 35410, -0.3231, 1.9425, -1.3792, -2.5916, 0.4534, -0.4407
13.2900, -1.6100, 0.6706, 1.0652, 0.4337, -0.1590, 0.9748, 35450, -0.3231, 1.9425, -1.3792, -2.5916, 0.4534, -0.4407
13.3100, -1.5517, 0.6335, 1.1171, 0.4489, -0.1805, 0.9941, 35470, -0.3231, 1.9425, -1.3792, -2.5916, 0.4534, -0.4407
13.3200, -1.5517, 0.6335, 1.1171, 0.4489, -0.1805, 0.9941, 35470, -0.3231, 1.9425, -1.3792, -2.5916, 0.4534, -0.4407
13.3500, -1.3192, 0.5862, 1.1630, 0.4789, -0.2152, 1.0348, 35510, -0.3231, 1.9425, -1.3792, -2.5916, 0.4534, -0.4407
13.3700, -1.3192, 0.5862, 1.1630, 0.4789, -0.2152, 1.0348, 35510, -0.3231, 1.9425, -1.3792, -2.5916, 0.4534, -0.4407
13.3900, -1.1566, 0.6212, 1.2310, 0.5107, -0.2398, 1.0779, 35550, -0.3231, 1.9425, -1.3792, -2.5916, 0.4534, -0.4407
13.4100, -1.0684, 0.6612, 1.2350, 0.5280, -0.2489, 1.1003, 35570, -0.3231, 1.9425, -1.3792, -2.5916, 0.4534, -0.4407
13.4300, -0.9550, 0.7163, 1.2673, 0.5466, -0.2557, 1.1226, 35590, -0.3231, 1.9425, -1.3792, -2.5916, 0.4534, -0.4407
13.4500, -0.8507, 0.7760, 1.2743, 0.5665, -0.2599, 1.1451, 35610, -0.3231, 1.9425, -1.3792, -2.5916, 0.4534, -0.4407
13.4700, -0.7276, 0.8585, 1.2985, 0.5882, -0.2611, 1.1678, 35630, -0.3231, 1.9425, -1.3792, -2.5916, 0.4534, -0.4407
13.4900, -0.6255, 0.9647, 1.3044, 0.6117, -0.2601, 1.1907, 35650, -0.3231, 1.9425, -1.3792, -2.5916, 0.4534, -0.4407
13.5100, -0.5139, 1.0810, 1.3033, 0.6370, -0.2564, 1.2134, 35670, -0.3231, 1.9425, -1.3792, -2.5916, 0.4534, -0.4407
13.5300, -0.5139, 1.0810, 1.3033, 0.6370, -0.2564, 1.2134, 35670, -0.3231, 1.9425, -1.3792, -2.5916, 0.4534, -0.4407
13.5500, -0.5139, 1.0810, 1.3033, 0.6370, -0.2564, 1.2134, 35670, -0.3231, 1.9425, -1.3792, -2.5916, 0.4534, -0.4407
13.5700, -0.3110, 1.5001, 1.2367, 0.7266, -0.2335, 1.2788, 35730, -0.3231, 1.9425, -1.3792, -2.5916, 0.4534, -0.4407
13.5900, -0.2846, 1.6269, 1.1781, 0.7617, -0.2236, 1.2994, 35750, -0.3231, 1.9425, -1.3792, -2.5916, 0.4534, -0.4407
13.6100, -0.3182, 1.7377, 1.1560, 0.7988, -0.2138, 1.3193, 35770, -0.3231, 1.9425, -1.3792, -2.5916, 0.4534, -0.4407
13.6300, -0.3876, 1.7938, 1.1055, 0.8374, -0.2047, 1.3387, 35790, -0.3231, 1.9425, -1.3792, -2.5916, 0.4534, -0.4407
13.6500, -0.4717, 1.7815, 1.0450, 0.8760, -0.1972, 1.3582, 35810, -0.3231, 1.9425, -1.3792, -2.5916, 0.4534, -0.4407
13.6700, -0.5988, 1.7006, 0.9977, 0.9135, -0.1911, 1.3779, 35830, -0.3231, 1.9425, -1.3792, -2.5916, 0.4534, -0.4407
13.6900, -0.6886, 1.6487, 0.9472, 0.9495, -0.1868, 1.3980, 35850, -0.3231, 1.9425, -1.3792, -2.5916, 0.4534, -0.4407
13.7100, -0.7967, 1.6124, 0.8743, 0.9842, -0.1847, 1.4172, 35870, -0.3231, 1.9425, -1.3792, -2.5916, 0.4534, -0.4407
13.7300, -0.8620, 1.5947, 0.7964, 1.0182, -0.1843, 1.4357, 35890, -0.3231, 1.9425, -1.3792, -2.5916, 0.4534, -0.4407
13.7500, -0.8749, 1.5958, 0.7179, 1.0517, -0.1859, 1.4518, 35910, -0.3231, 1.9425, -1.3792, -2.5916, 0.4534, -0.4407
13.7700, -0.8631, 1.5847, 0.6332, 1.0845, -0.1888, 1.4657, 35930, -0.3231, 1.9425, -1.3792, -2.5916, 0.4534, -0.4407
13.7800, -0.8631, 1.5847, 0.6332, 1.0845, -0.1888, 1.4657, 35930, -0.3231, 1.9425, -1.3792, -2.5916, 0.4534, -0.4407
13.8100, -0.6733, 1.4858, 0.4384, 1.1472, -0.1983, 1.4846, 35970, -0.3231, 1.9425, -1.3792, -2.5916, 0.4534, -0.4407
13.8300, -0.5005, 1.3831, 0.3233, 1.1753, -0.2044, 1.4874, 35990, -0.3231, 1.9425, -1.3792, -2.5916, 0.4534, -0.4407
13.8500, -0.5005, 1.3831, 0.3233, 1.1753, -0.2044, 1.4874, 35990, -0.3231, 1.9425, -1.3792, -2.5916, 0.4534, -0.4407
13.8700, -0.1236, 1.0461, 0.0586, 1.2217, -0.2206, 1.4778, 36030, -0.3231, 1.9425, -1.3792, -2.5916, 0.4534, -0.4407
13.8900, 0.0857, 0.9268, -0.0575, 1.2397, -0.2318, 1.4635, 36050, -0.3231, 1.9425, -1.3792, -2.5916, 0.4534, -0.4407
13.9100, 0.2957, 0.7996, -0.2037, 1.2542, -0.2463, 1.4413, 36070, -0.3231, 1.9425, -1.3792, -2.5916, 0.4534, -0.4407
13.9300, 0.5185, 0.6851, -0.3322, 1.2650, -0.2634, 1.4125, 36090, -0.3231, 1.9425, -1.3792, -2.5916, 0.4534, -0.4407
13.9500, 0.7730, 0.5704, -0.4994, 1.2741, -0.2875, 1.3701, 36110, -0.3231, 1.9425, -1.3792, -2.5916, 0.4534, -0.4407
13.9700, 0.9757, 0.4693, -0.6607, 1.2793, -0.3157, 1.3195, 36130, -0.3231, 1.9425, -1.3792, -2.5916, 0.4534, -0.4407
13.9900, 1.1595, 0.3739, -0.8268, 1.2812, -0.3487, 1.2600, 36150, -0.3231, 1.9425, -1.3792, -2.5916, 0.4534, -0.4407
14.0100, 1.3076, 0.3623, -0.9612, 1.2807, -0.3876, 1.1907, 36170, -0.3231, 1.9425, -1.3792, -2.5916, 0.4534, -0.4407
14.0300, 1.4100, 0.3454, -1.0767, 1.2781, -0.4307, 1.1142, 36190, -0.3231, 1.9425, -1.3792, -2.5916, 0.4534, -0.4407
14.0500, 1.4955, 0.3836, -1.2025, 1.2739, -0.4791, 1.0304, 36210, -0.3231, 1.9425, -1.3792, -2.5916, 0.4534, -0.4407
14.0700, 1.5431, 0.3997, -1.3052, 1.2680, -0.5313, 0.9414, 36230, -0.3231, 1.9425, -1.3792, -2.5916, 0.4534, -0.4407
14.0900, 1.5697, 0.3809, -1.3969, 1.2600, -0.5856, 0.8495, 36250, -0.3231, 1.9425, -1.3792, -2.5916, 0.4534, -0.4407
14.1100, 1.5458, 0.4064, -1.4783, 1.2495, -0.6397, 0.7575, 36270, -0.3231, 1.9425, -1.3792, -2.5916, 0.4534, -0.4407
14.1300, 1.5321, 0.3965, -1.5355, 1.2374, -0.6905, 0.6709, 36290, -0.3231, 1.9425, -1.3792, -2.5916, 0.4534, -0.4407
14.1500, 1.5132, 0.4032, -1.5759, 1.2221, -0.7428, 0.5794, 36310, -0.3231, 1.9425, -1.3792, -2.5916, 0.4534, -0.4407
14.1700, 1.5248, 0.3575, -1.5915, 1.2057, -0.7875, 0.4978, 36330, -0.3231, 1.9425, -1.3792, -2.5916, 0.4534, -0.4407
14.1900, 1.5261, 0.2653, -1.5941, 1.1879, -0.8227, 0.4276, 36350, -0.3231, 1.9425, -1.3792, -2.5916, 0.4534, -0.4407
14.2100, 1.5592, 0.1067, -1.5804, 1.1661, -0.8508, 0.3606, 36370, -0.3231, 1.9425, -1.3792, -2.5916, 0.4534, -0.4407
14.2300, 1.6350, -0.1000, -1.5353, 1.1428, -0.8652, 0.3089, 36390, -0.3231, 1.9425, -1.3792, -2.5916, 0.4534, -0.4407
14.2500, 1.7186, -0.3868, -1.4890, 1.1165, -0.8652, 0.2707, 36410, -0.3231, 1.9425, -1.3792, -2.5916, 0.4534, -0.4407
14.2700, 1.8317, -0.6894, -1.4624, 1.0868, -0.8510, 0.2454, 36430, -0.3231, 1.9425, -1.3792, -2.5916, 0.4534, -0.4407
14.2900, 1.9457, -0.9324, -1.4071, 1.0540, -0.8254, 0.2299, 36450, -0.3231, 1.9425, -1.3792, -2.5916, 0.4534, -0.4407
14.3100, 2.0220, -1.1262, -1.3713, 1.0187, -0.7920, 0.2208, 36470, -0.3231, 1.9425, -1.3792, -2.5916, 0.4534, -0.4407
14.3300, 2.1011, -1.2496, -1.3106, 0.9821, -0.7542, 0.2154, 36490, -0.3231, 1.9425, -1.3792, -2.5916, 0.4534, -0.4407
14.3500, 2.1871, -1.3243, -1.2450, 0.9453, -0.7130, 0.2115, 36510, -0.3231, 1.9425, -1.3792, -2.5916, 0.4534, -0.4407
14.3700, 2.2467, -1.3227, -1.1786, 0.9090, -0.6706, 0.2075, 36530, -0.3231, 1.9425, -1.3792, -2.5916, 0.4534, -0.4407
14.3900, 2.3029, -1.2697, -1.1122, 0.8741, -0.6278, 0.2025, 36550, -0.3231, 1.9425, -1.3792, -2.5916, 0.4534, -0.4407
14.4100, 2.3295, -1.1816, -1.0520, 0.8411, -0.5850, 0.1962, 36570, -0.3231, 1.9425, -1.3792, -2.5916, 0.4534, -0.4407
14.4300, 2.3526, -1.1179, -0.9918, 0.8098, -0.5428, 0.1883, 36590, -0.3231, 1.9425, -1.3792, -2.5916, 0.4534, -0.4407
14.4500, 2.3532, -1.0152, -0.9367, 0.7812, -0.5009, 0.1794, 36610, -0.3231, 1.9425, -1.3792, -2.5916, 0.4534, -0.4407
14.4700, 2.3814, -0.9496, -0.8620, 0.7549, -0.4592, 0.1696, 36630, -0.3231, 1.9425, -1.3792, -2.5916, 0.4534, -0.4407
14.4900, 2.3438, -0.8915, -0.8037, 0.7304, -0.4177, 0.1593, 36650, -0.3231, 1.9425, -1.3792, -2.5916, 0.4534, -0.4407
14.5100, 2.2639, -0.8598, -0.7531, 0.7103, -0.3793, 0.1492, 36670, -0.3231, 1.9425, -1.3792, -2.5916, 0.4534, -0.4407
14.5300, 2.2639, -0.8598, -0.7531, 0.7103, -0.3793, 0.1492, 36670, -0.3231, 1.9425, -1.3792, -2.5916, 0.4534, -0.4407
14.5500, 2.2639, -0.8598, -0.7531, 0.7103, -0.3793, 0.1492, 36670, -0.3231, 1.9425, -1.3792, -2.5916, 0.4534, -0.4407
14.5700, 1.8756, -0.8504, -0.6241, 0.6531, -0.2707, 0.1182, 36730, -0.3231, 1.9425, -1.3792, -2.5916, 0.4534, -0.4407
14.5900, 1.7385, -0.8628, -0.5908, 0.6348, -0.2389, 0.1086, 36750, -0.3231, 1.9425, -1.3792, -2.5916, 0.4534, -0.4407
14.6100, 1.5963, -0.8846, -0.5416, 0.6156, -0.2082, 0.0991, 36770, -0.3231, 1.9425, -1.3792, -2.5916, 0.4534, -0.4407
14.6300, 1.4337, -0.8703, -0.5263, 0.5976, -0.1817, 0.0904, 36790, -0.3231, 1.9425, -1.3792, -2.5916, 0.4534, -0.4407
14.6500, 1.2797, -0.8523, -0.4967, 0.5805, -0.1581, 0.0819, 36810, -0.3231, 1.9425, -1.3792, -2.5916, 0.4534, -0.4407
14.6700, 1.0797, -0.8633, -0.4599, 0.5636, -0.1379, 0.0735, 36830, -0.3231, 1.9425, -1.3792, -2.5916, 0.4534, -0.4407
14.6900, 0.8967, -0.8649, -0.4325, 0.5468, -0.1211, 0.0654, 36850, -0.3231, 1.9425, -1.3792, -2.5916, 0.4534, -0.4407
14.7100, 0.7050, -0.8859, -0.4112, 0.5295, -0.1084, 0.0579, 36870, -0.3231, 1.9425, -1.3792, -2.5916, 0.4534, -0.4407
14.7300, 0.5507, -0.9090, -0.3731, 0.5121, -0.0984, 0.0510, 36890, -0.3231, 1.9425, -1.3792, -2.5916, 0.4534, -0.4407
14.7500, 0.4591, -0.9784, -0.3559, 0.4938, -0.0902, 0.0445, 36910, -0.3231, 1.9425, -1.3792, -2.5916, 0.4534, -0.4407
14.7700, 0.4005, -0.9735, -0.3465, 0.4753, -0.0834, 0.0382, 36930, -0.3231, 1.9425, -1.3792, -2.5916, 0.4534, -0.4407
14.7900, 0.3414, -1.0047, -0.3212, 0.4561, -0.0775, 0.0325, 36950, -0.3231, 1.9425, -1.3792, -2.5916, 0.4534, -0.4407
14.8100, 0.2854, -1.0138, -0.2983, 0.4367, -0.0723, 0.0272, 36970, -0.3231, 1.9425, -1.3792, -2.5916, 0.4534, -0.4407
14.8300, 0.2416, -1.0405, -0.2653, 0.4171, -0.0681, 0.0223, 36990, -0.3231, 1.9425, -1.3792, -2.5916, 0.4534, -0.4407
14.8500, 0.2263, -1.0560, -0.2438, 0.3974, -0.0642, 0.0180, 37010, -0.3231, 1.9425, -1.3792, -2.5916, 0.4534, -0.4407
14.8700, 0.2150, -1.0568, -0.2263, 0.3773, -0.0604, 0.0140, 37030, -0.3231, 1.9425, -1.3792, -2.5916, 0.4534, -0.4407
14.8900, 0.2094, -1.0673, -0.2379, 0.3573, -0.0565, 0.0099, 37050, -0.3231, 1.9425, -1.3792, -2.5916, 0.4534, -0.4407
14.9100, 0.2449, -1.0738, -0.2217, 0.3372, -0.0520, 0.0061, 37070, -0.3231, 1.9425, -1.3792, -2.5916, 0.4534, -0.4407
14.9300, 0.2454, -1.0477, -0.2215, 0.3170, -0.0475, 0.0023, 37090, -0.3231, 1.9425, -1.3792, -2.5916, 0.4534, -0.4407
14.9500, 0.2653, -1.0482, -0.2078, 0.2972, -0.0424, 6.2818, 37110, -0.3231, 1.9425, -1.3792, -2.5916, 0.4534, -0.4407
14.9700, 0.3061, -1.0192, -0.1906, 0.2777, -0.0367, 6.2781, 37130, -0.3231, 1.9425, -1.3792, -2.5916, 0.4534, -0.4407
14.9900, 0.3642, -1.0208, -0.1954, 0.2585, -0.0300, 6.2746, 37150, -0.3231, 1.9425, -1.3792, -2.5916, 0.4534, -0.4407
15.0100, 0.3967, -0.9897, -0.1911, 0.2405, -0.0227, 6.2711, 37170, -0.3231, 1.9425, -1.3792, -2.5916, 0.4534, -0.4407
15.0300, 0.4306, -0.9749, -0.1758, 0.2213, -0.0140, 6.2671, 37190, -0.3231, 1.9425, -1.3792, -2.5916, 0.4534, -0.4407
15.0500, 0.4731, -0.9429, -0.1881, 0.2035, -0.0047, 6.2633, 37210, -0.3231, 1.9425, -1.3792, -2.5916, 0.4534, -0.4407
15.0700, 0.5150, -0.9007, -0.1675, 0.1861, 0.0054, 6.2594, 37230, -0.1949, 1.8162, -1.3440, -3.0534, -0.1808, -0.1240
15.0900, 0.5427, -0.8964, -0.1640, 0.1691, 0.0164, 6.2556, 37250, -0.1907, 1.7901, -1.3362, -3.0582, -0.1671, -0.1386
15.1100, 0.5765, -0.9112, -0.1419, 0.1532, 0.0274, 6.2521, 37270, -0.1867, 1.7636, -1.3294, -3.0618, -0.1491, -0.1470
15.1300, 0.5838, -0.9251, -0.1021, 0.1353, 0.0401, 6.2488, 37290, -0.1867, 1.7636, -1.3294, -3.0618, -0.1491, -0.1470
15.1500, 0.5803, -0.9878, -0.0847, 0.1176, 0.0527, 6.2457, 37310, -0.1796, 1.7121, -1.3154, -3.0648, -0.1105, -0.1679
15.1700, 0.5607, -1.0654, -0.0656, 0.0986, 0.0646, 6.2427, 37330, -0.1755, 1.6857, -1.3089, -3.0670, -0.0900, -0.1764
15.1900, 0.4728, -1.1367, -0.0699, 0.0782, 0.0756, 6.2397, 37350, -0.1714, 1.6600, -1.3021, -3.0678, -0.0667, -0.1864
15.2100, 0.4059, -1.2146, -0.0312, 0.0559, 0.0852, 6.2368, 37370, -0.1678, 1.6339, -1.2960, -3.0651, -0.0408, -0.1916
15.2300, 0.3330, -1.2840, -0.0175, 0.0319, 0.0930, 6.2340, 37390, -0.1634, 1.6080, -1.2897, -3.0639, -0.0156, -0.1972
15.2500, 0.2615, -1.3235, -0.0105, 0.0066, 0.0997, 6.2308, 37410, -0.1597, 1.5816, -1.2838, -3.0624, 0.0099, -0.1997
15.2700, 0.1795, -1.3581, 0.0040, -0.0188, 0.1049, 6.2280, 37430, -0.1557, 1.5552, -1.2779, -3.0602, 0.0374, -0.2039
15.2900, 0.1215, -1.3477, 0.0116, -0.0450, 0.1087, 6.2252, 37450, -0.1512, 1.5282, -1.2724, -3.0608, 0.0641, -0.2034
15.3100, 0.0519, -1.3127, 0.0250, -0.0705, 0.1112, 6.2224, 37470, -0.1475, 1.5019, -1.2671, -3.0589, 0.0890, -0.2026
15.3300, -0.0102, -1.2412, 0.0204, -0.0949, 0.1122, 6.2200, 37490, -0.1439, 1.4758, -1.2619, -3.0548, 0.1120, -0.2024
15.3500, -0.1145, -1.1345, 0.0196, -0.1176, 0.1122, 6.2176, 37510, -0.1410, 1.4496, -1.2569, -3.0533, 0.1320, -0.1974
15.3700, -0.2355, -1.0203, 0.0169, -0.1382, 0.1100, 6.2155, 37530, -0.1385, 1.4230, -1.2522, -3.0522, 0.1510, -0.1906
15.3900, -0.3607, -0.8894, 0.0269, -0.1562, 0.1049, 6.2137, 37550, -0.1364, 1.3967, -1.2481, -3.0535, 0.1671, -0.1824
15.4100, -0.4972, -0.7832, -0.0027, -0.1719, 0.0974, 6.2122, 37570, -0.1344, 1.3699, -1.2437, -3.0548, 0.1794, -0.1714
15.4300, -0.6292, -0.6150, -0.0280, -0.1847, 0.0871, 6.2106, 37590, -0.1327, 1.3429, -1.2397, -3.0569, 0.1884, -0.1588
15.4500, -0.7354, -0.4591, -0.0726, -0.1946, 0.0745, 6.2085, 37610, -0.1313, 1.3159, -1.2361, -3.0604, 0.1945, -0.1437
15.4700, -0.8313, -0.2760, -0.1263, -0.2011, 0.0602, 6.2057, 37630, -0.1304, 1.2891, -1.2328, -3.0658, 0.1963, -0.1287
15.4900, -0.8856, -0.0804, -0.2231, -0.2044, 0.0443, 6.2019, 37650, -0.1302, 1.2626, -1.2300, -3.0740, 0.1952, -0.1117
15.5100, -0.9286, 0.1355, -0.3048, -0.2042, 0.0278, 6.1964, 37670, -0.1307, 1.2360, -1.2273, -3.0840, 0.1887, -0.0945
15.5300, -0.9563, 0.3650, -0.4064, -0.1995, 0.0112, 6.1888, 37690, -0.1317, 1.2093, -1.2249, -3.0951, 0.1766, -0.0791
15.5500, -0.9198, 0.6109, -0.5394, -0.1904, -0.0049, 6.1786, 37710, -0.1340, 1.1832, -1.2231, -3.1099, 0.1615, -0.0637
15.5700, -0.8674, 0.8235, -0.6830, -0.1768, -0.0202, 6.1656, 37730, -0.1370, 1.1571, -1.2214, -3.1277, 0.1423, -0.0494
15.5900, -0.7940, 0.9926, -0.8531, -0.1606, -0.0342, 6.1500, 37750, -0.1407, 1.1321, -1.2202, 3.1344, 0.1223, -0.0388
15.6100, -0.6639, 1.0845, -0.9923, -0.1401, -0.0471, 6.1292, 37770, -0.1447, 1.1073, -1.2192, 3.1110, 0.1015, -0.0290
15.6300, -0.5440, 1.1388, -1.1719, -0.1199, -0.0569, 6.1060, 37790, -0.1486, 1.0831, -1.2184, 3.0848, 0.0816, -0.0212
15.6500, -0.4220, 1.0835, -1.3434, -0.1005, -0.0644, 6.0793, 37810, -0.1523, 1.0589, -1.2177, 3.0552, 0.0621, -0.0160
15.6700, -0.3002, 1.0394, -1.5108, -0.0805, -0.0700, 6.0493, 37830, -0.1563, 1.0353, -1.2171, 3.0222, 0.0454, -0.0112
15.6900, -0.1906, 0.9442, -1.6463, -0.0620, -0.0737, 6.0160, 37850, -0.1600, 1.0117, -1.2165, 2.9872, 0.0290, -0.0093
15.7100, -0.0567, 0.8706, -1.8089, -0.0452, -0.0754, 5.9798, 37870, -0.1640, 0.9884, -1.2162, 2.9490, 0.0148, -0.0090
15.7300, 0.0731, 0.8117, -1.9769, -0.0300, -0.0754, 5.9404, 37890, -0.1680, 0.9655, -1.2163, 2.9081, 0.0027, -0.0096
15.7500, 0.2131, 0.7617, -2.1269, -0.0162, -0.0731, 5.8980, 37910, -0.1719, 0.9422, -1.2163, 2.8646, -0.0117, -0.0144
15.7700, 0.3698, 0.7222, -2.2736, -0.0040, -0.0682, 5.8528, 37930, -0.1762, 0.9200, -1.2164, 2.8171, -0.0242, -0.0207
15.7900, 0.5225, 0.6663, -2.4128, 0.0054, -0.0606, 5.8050, 37950, -0.1806, 0.8985, -1.2167, 2.7676, -0.0326, -0.0281
15.8100, 0.6819, 0.5929, -2.5577, 0.0136, -0.0503, 5.7550, 37970, -0.1851, 0.8775, -1.2173, 2.7148, -0.0434, -0.0393
15.8300, 0.8402, 0.5002, -2.6797, 0.0213, -0.0365, 5.7025, 37990, -0.1899, 0.8569, -1.2181, 2.6590, -0.0510, -0.0521
15.8500, 0.9233, 0.4029, -2.8101, 0.0278, -0.0213, 5.6505, 38010, -0.1947, 0.8372, -1.2185, 2.6010, -0.0555, -0.0641
15.8700, 0.9862, 0.3293, -2.9039, 0.0340, -0.0033, 5.5905, 38030, -0.1998, 0.8176, -1.2195, 2.5405, -0.0609, -0.0766
15.8900, 1.0179, 0.2446, -3.0297, 0.0394, 0.0141, 5.5313, 38050, -0.2050, 0.7982, -1.2207, 2.4787, -0.0650, -0.0898
15.9100, 1.0060, 0.1500, -3.1313, 0.0440, 0.0311, 5.4702, 38070, -0.2100, 0.7792, -1.2218, 2.4152, -0.0697, -0.1014
15.9300, 0.9493, 0.0841, -3.2143, 0.0482, 0.0471, 5.4070, 38090, -0.2155, 0.7604, -1.2233, 2.3506, -0.0727, -0.1112
15.9500, 0.8929, 0.0196, -3.2880, 0.0520, 0.0616, 5.3425, 38110, -0.2207, 0.7419, -1.2244, 2.2842, -0.0759, -0.1193
15.9700, 0.8351, -0.0435, -3.3455, 0.0552, 0.0742, 5.2798, 38130, -0.2262, 0.7236, -1.2254, 2.2178, -0.0775, -0.1261
15.9900, 0.7776, -0.1196, -3.3982, 0.0583, 0.0864, 5.2091, 38150, -0.2307, 0.7055, -1.2266, 2.1504, -0.0810, -0.1320
16.0100, 0.7391, -0.1825, -3.4439, 0.0609, 0.0970, 5.1407, 38170, -0.2359, 0.6888, -1.2274, 2.0807, -0.0793, -0.1368
16.0300, 0.6585, -0.2758, -3.5122, 0.0623, 0.1058, 5.0744, 38190, -0.2407, 0.6722, -1.2288, 2.0113, -0.0775, -0.1394
16.0500, 0.5163, -0.3510, -3.5237, 0.0632, 0.1129, 5.0004, 38210, -0.2458, 0.6558, -1.2303, 1.9426, -0.0756, -0.1380
16.0700, 0.3185, -0.3841, -3.5374, 0.0632, 0.1162, 4.9292, 38230, -0.2507, 0.6400, -1.2314, 1.8733, -0.0733, -0.1332
16.0900, 0.1363, -0.3784, -3.5608, 0.0628, 0.1155, 4.8578, 38250, -0.2556, 0.6245, -1.2321, 1.8046, -0.0713, -0.1254
16.1100, 0.0145, -0.3551, -3.5799, 0.0630, 0.1122, 4.7860, 38270, -0.2605, 0.6101, -1.2324, 1.7348, -0.0694, -0.1157
16.1300, -0.0785, -0.2828, -3.5737, 0.0639, 0.1066, 4.7145, 38290, -0.2647, 0.5957, -1.2326, 1.6668, -0.0682, -0.1045
16.1500, -0.1752, -0.2258, -3.5646, 0.0653, 0.0991, 4.6433, 38310, -0.2687, 0.5818, -1.2322, 1.5994, -0.0666, -0.0918
16.1700, -0.2747, -0.2083, -3.5358, 0.0672, 0.0899, 4.5728, 38330, -0.2724, 0.5677, -1.2316, 1.5346, -0.0650, -0.0771
16.1900, -0.3803, -0.1857, -3.4864, 0.0686, 0.0784, 4.5028, 38350, -0.2759, 0.5543, -1.2309, 1.4693, -0.0619, -0.0611
16.2100, -0.4596, -0.2355, -3.4283, 0.0691, 0.0649, 4.4337, 38370, -0.2792, 0.5411, -1.2300, 1.4055, -0.0568, -0.0436
16.2300, -0.5093, -0.2540, -3.3853, 0.0679, 0.0506, 4.3654, 38390, -0.2825, 0.5282, -1.2290, 1.3424, -0.0495, -0.0266
16.2500, -0.5744, -0.3236, -3.3127, 0.0644, 0.0351, 4.2986, 38410, -0.2858, 0.5149, -1.2279, 1.2805, -0.0399, -0.0091
16.2700, -0.6233, -0.4094, -3.2651, 0.0583, 0.0190, 4.2329, 38430, -0.2891, 0.5023, -1.2267, 1.2192, -0.0269, 0.0081
16.2900, -0.6819, -0.4674, -3.1735, 0.0497, 0.0023, 4.1689, 38450, -0.2922, 0.4889, -1.2253, 1.1614, -0.0136, 0.0271
16.3100, -0.7394, -0.4919, -3.0832, 0.0396, -0.0141, 4.1068, 38470, -0.2954, 0.4760, -1.2234, 1.1043, 0.0010, 0.0455
16.3300, -0.7593, -0.5034, -2.9888, 0.0284, -0.0307, 4.0467, 38490, -0.2984, 0.4632, -1.2215, 1.0495, 0.0170, 0.0628
16.3500, -0.7397, -0.4835, -2.8926, 0.0162, -0.0468, 3.9888, 38510, -0.3014, 0.4504, -1.2193, 0.9962, 0.0324, 0.0784
16.3700, -0.7195, -0.4610, -2.7811, 0.0037, -0.0620, 3.9333, 38530, -0.3042, 0.4381, -1.2167, 0.9445, 0.0483, 0.0929
16.3900, -0.7123, -0.4464, -2.6722, -0.0087, -0.0761, 3.8800, 38550, -0.3069, 0.4259, -1.2139, 0.8946, 0.0647, 0.1058
16.4100, -0.6916, -0.4279, -2.5666, -0.0216, -0.0894, 3.8291, 38570, -0.3097, 0.4138, -1.2109, 0.8463, 0.0803, 0.1182
16.4300, -0.6862, -0.4370, -2.4585, -0.0351, -0.1014, 3.7804, 38590, -0.3123, 0.4020, -1.2074, 0.7995, 0.0962, 0.1297
16.4500, -0.6647, -0.4249, -2.3559, -0.0487, -0.1124, 3.7340, 38610, -0.3150, 0.3902, -1.2041, 0.7544, 0.1130, 0.1394
16.4700, -0.6107, -0.4161, -2.2766, -0.0620, -0.1216, 3.6914, 38630, -0.3178, 0.3784, -1.2008, 0.7109, 0.1294, 0.1474
16.4900, -0.6107, -0.4161, -2.2766, -0.0620, -0.1216, 3.6914, 38630, -0.3199, 0.3667, -1.1974, 0.6680, 0.1446, 0.1546
16.5100, -0.5053, -0.2836, -2.0965, -0.0885, -0.1381, 3.6055, 38670, -0.3223, 0.3553, -1.1943, 0.6277, 0.1568, 0.1598
16.5300, -0.5182, -0.1435, -2.0145, -0.0986, -0.1447, 3.5655, 38690, -0.3242, 0.3445, -1.1911, 0.5884, 0.1659, 0.1650
16.5500, -0.4701, 0.0212, -1.9355, -0.1056, -0.1504, 3.5268, 38710, -0.3261, 0.3332, -1.1884, 0.5522, 0.1710, 0.1699
16.5700, -0.4021, 0.1398, -1.8484, -0.1101, -0.1550, 3.4893, 38730, -0.3274, 0.3231, -1.1855, 0.5152, 0.1754, 0.1718
16.5900, -0.3427, 0.2669, -1.7922, -0.1117, -0.1583, 3.4547, 38750, -0.3286, 0.3129, -1.1831, 0.4797, 0.1778, 0.1720
16.6100, -0.2658, 0.3586, -1.7148, -0.1115, -0.1606, 3.4177, 38770, -0.3298, 0.3027, -1.1810, 0.4461, 0.1771, 0.1719
16.6300, -0.2422, 0.4725, -1.6457, -0.1091, -0.1621, 3.3838, 38790, -0.3312, 0.2926, -1.1791, 0.4144, 0.1746, 0.1714
16.6500, -0.2258, 0.5303, -1.5845, -0.1049, -0.1632, 3.3510, 38810, -0.3326, 0.2830, -1.1776, 0.3831, 0.1700, 0.1721
16.6700, -0.2336, 0.6109, -1.5019, -0.0990, -0.1646, 3.3194, 38830, -0.3343, 0.2737, -1.1762, 0.3532, 0.1646, 0.1723
16.6900, -0.2164, 0.6808, -1.4329, -0.0913, -0.1658, 3.2889, 38850, -0.3360, 0.2643, -1.1754, 0.3244, 0.1580, 0.1721
16.7100, -0.1927, 0.7711, -1.3702, -0.0820, -0.1669, 3.2598, 38870, -0.3376, 0.2550, -1.1747, 0.2965, 0.1495, 0.1721
16.7300, -0.1449, 0.8136, -1.3157, -0.0714, -0.1681, 3.2313, 38890, -0.3393, 0.2460, -1.1742, 0.2698, 0.1384, 0.1712
16.7500, -0.0903, 0.9087, -1.2654, -0.0588, -0.1686, 3.2036, 38910, -0.3408, 0.2371, -1.1737, 0.2447, 0.1258, 0.1702
16.7700, -0.0546, 0.9845, -1.1845, -0.0447, -0.1689, 3.1774, 38930, -0.3418, 0.2286, -1.1734, 0.2193, 0.1126, 0.1687
16.7900, -0.0559, 1.0310, -1.1240, -0.0290, -0.1691, 3.1521, 38950, -0.3435, 0.2197, -1.1730, 0.1976, 0.0960, 0.1694
16.8100, -0.0855, 1.0794, -1.0749, -0.0122, -0.1702, 3.1275, 38970, -0.3448, 0.2114, -1.1725, 0.1760, 0.0800, 0.1697
16.8300, -0.0755, 1.1103, -1.0211, 0.0052, -0.1710, 3.1041, 38990, -0.3462, 0.2034, -1.1720, 0.1555, 0.0631, 0.1702
16.8500, -0.0562, 1.1189, -0.9851, 0.0232, -0.1724, 3.0816, 39010, -0.3473, 0.1955, -1.1712, 0.1345, 0.0457, 0.1707
16.8700, -0.0035, 1.1179, -0.9130, 0.0415, -0.1735, 3.0599, 39030, -0.3485, 0.1875, -1.1702, 0.1153, 0.0290, 0.1708
16.8900, 0.0419, 1.1028, -0.8558, 0.0597, -0.1740, 3.0393, 39050, -0.3499, 0.1796, -1.1694, 0.0979, 0.0128, 0.1680
16.9100, 0.0965, 1.0638, -0.8157, 0.0777, -0.1740, 3.0199, 39070, -0.3513, 0.1715, -1.1678, 0.0827, -0.0001, 0.1651
16.9300, 0.1699, 0.9109, -0.6330, 0.0941, -0.1731, 3.0034, 39090, -0.3526, 0.1634, -1.1662, 0.0690, -0.0133, 0.1625
16.9500, 0.1863, 0.7862, -0.5859, 0.1075, -0.1719, 2.9892, 39110, -0.3541, 0.1557, -1.1645, 0.0570, -0.0258, 0.1602
16.9700, 0.0704, 0.7757, -0.5142, 0.1208, -0.1716, 2.9768, 39130, -0.3552, 0.1482, -1.1629, 0.0471, -0.0383, 0.1602
16.9900, 0.0298, 0.7142, -0.4599, 0.1332, -0.1714, 2.9644, 39150, -0.3563, 0.1407, -1.1614, 0.0402, -0.0513, 0.1605
17.0100, 0.0027, 0.6429, -0.2527, 0.1442, -0.1719, 2.9559, 39170, -0.3580, 0.1337, -1.1591, 0.0373, -0.0584, 0.1594
17.0300, 0.0263, 0.6018, 0.0409, 0.1553, -0.1717, 2.9520, 39190, -0.3580, 0.1266, -1.1571, 0.0428, -0.0720, 0.1572
17.0500, 0.0285, 0.7324, 0.5478, 0.1693, -0.1709, 2.9562, 39210, -0.3571, 0.1195, -1.1549, 0.0563, -0.0908, 0.1547
17.0700, -0.0457, 0.8999, 0.7727, 0.1873, -0.1698, 2.9679, 39230, -0.3550, 0.1126, -1.1528, 0.0704, -0.1136, 0.1553
17.0900, -0.0567, 0.5588, 0.6900, 0.2056, -0.1689, 2.9810, 39250, -0.3546, 0.1063, -1.1501, 0.0808, -0.1191, 0.1537
17.1100, 0.0642, -0.0734, 0.4244, 0.2110, -0.1665, 2.9920, 39270, -0.3554, 0.1006, -1.1471, 0.0847, -0.1087, 0.1492
17.1300, 0.1734, -0.3698, 0.1922, 0.2073, -0.1625, 2.9993, 39290, -0.3560, 0.0944, -1.1446, 0.0881, -0.1042, 0.1429
17.1500, 0.2760, -0.2271, 0.2016, 0.2014, -0.1560, 3.0042, 39310, -0.3558, 0.0881, -1.1414, 0.0913, -0.1008, 0.1346
17.1700, 0.4542, -0.1959, 0.2295, 0.1984, -0.1477, 3.0096, 39330, -0.3553, 0.0819, -1.1387, 0.0945, -0.1003, 0.1236
17.1900, 0.5502, -0.1559, 0.3497, 0.1950, -0.1363, 3.0166, 39350, -0.3551, 0.0755, -1.1356, 0.0999, -0.0983, 0.1101
17.2100, 0.6163, -0.1253, 0.3723, 0.1934, -0.1236, 3.0243, 39370, -0.3554, 0.0693, -1.1332, 0.1051, -0.0973, 0.0970
17.2300, 0.6341, -0.3104, 0.4077, 0.1897, -0.1101, 3.0329, 39390, -0.3562, 0.0632, -1.1303, 0.1118, -0.0875, 0.0827
17.2500, 0.6499, -0.5564, 0.4284, 0.1822, -0.0960, 3.0426, 39410, -0.3571, 0.0573, -1.1285, 0.1210, -0.0791, 0.0691
17.2700, 0.6195, -0.5679, 0.5561, 0.1726, -0.0826, 3.0538, 39430, -0.3578, 0.0514, -1.1265, 0.1325, -0.0687, 0.0564
17.2900, 0.5644, -0.5669, 0.6074, 0.1621, -0.0686, 3.0678, 39450, -0.3587, 0.0457, -1.1248, 0.1428, -0.0577, 0.0455
17.3100, 0.5389, -0.7174, 0.5730, 0.1503, -0.0560, 3.0810, 39470, -0.3600, 0.0399, -1.1236, 0.1545, -0.0416, 0.0332
17.3300, 0.5679, -0.9542, 0.5615, 0.1342, -0.0438, 3.0938, 39490, -0.3614, 0.0340, -1.1227, 0.1670, -0.0220, 0.0215
17.3500, 0.5706, -1.1740, 0.6236, 0.1147, -0.0323, 3.1060, 39510, -0.3630, 0.0282, -1.1221, 0.1823, 0.0031, 0.0108
17.3700, 0.4779, -1.4065, 0.8104, 0.0878, -0.0202, 3.1217, 39530, -0.3645, 0.0229, -1.1218, 0.2004, 0.0296, 0.0030
17.3900, 0.3086, -1.2686, 1.0235, 0.0616, -0.0113, 3.1412, 39550, -0.3666, 0.0173, -1.1221, 0.2227, 0.0502, -0.0008
17.4100, 0.0613, -0.9577, 0.9854, 0.0398, -0.0068, 3.1620, 39570, -0.3680, 0.0127, -1.1229, 0.2414, 0.0634, 0.0016
17.4300, -0.1360, -0.8733, 0.9509, 0.0227, -0.0073, 3.1817, 39590, -0.3693, 0.0078, -1.1236, 0.2627, 0.0802, 0.0068
17.4500, -0.2545, -1.0625, 1.0015, 0.0033, -0.0110, 3.2018, 39610, -0.3705, 0.0032, -1.1245, 0.2841, 0.1029, 0.0136
17.4700, -0.3328, -1.2727, 1.0611, -0.0199, -0.0168, 3.2229, 39630, -0.3725, -0.0013, -1.1264, 0.3072, 0.1216, 0.0223
17.4900, -0.4903, -1.2652, 1.0232, -0.0440, -0.0255, 3.2435, 39650, -0.3741, -0.0054, -1.1264, 0.3270, 0.1471, 0.0373
17.5100, -0.6840, -1.0222, 0.9491, -0.0670, -0.0389, 3.2655, 39670, -0.3755, -0.0085, -1.1277, 0.3436, 0.1596, 0.0554
17.5300, -0.8069, -0.8190, 0.9520, -0.0843, -0.0548, 3.2854, 39690, -0.3765, -0.0116, -1.1285, 0.3638, 0.1711, 0.0740
17.5500, -0.8042, -0.7558, 1.1152, -0.0986, -0.0724, 3.3069, 39710, -0.3768, -0.0142, -1.1294, 0.3875, 0.1810, 0.0924
17.5700, -0.7580, -0.7668, 1.3595, -0.1121, -0.0901, 3.3334, 39730, -0.3765, -0.0160, -1.1298, 0.4147, 0.1920, 0.1096
17.5900, -0.6819, -0.6865, 1.4560, -0.1243, -0.1068, 3.3636, 39750, -0.3756, -0.0171, -1.1303, 0.4409, 0.1980, 0.1269
17.6100, -0.6456, -0.5421, 1.4431, -0.1337, -0.1236, 3.3941, 39770, -0.3746, -0.0175, -1.1307, 0.4683, 0.2020, 0.1427
17.6300, -0.5540, -0.5147, 1.5143, -0.1407, -0.1393, 3.4256, 39790, -0.3729, -0.0179, -1.1308, 0.4984, 0.2046, 0.1585
17.6500, -0.4169, -0.4677, 1.6089, -0.1463, -0.1532, 3.4587, 39810, -0.3713, -0.0175, -1.1315, 0.5305, 0.2040, 0.1693
17.6700, -0.3026, -0.3174, 1.6960, -0.1489, -0.1649, 3.4935, 39830, -0.3693, -0.0168, -1.1317, 0.5638, 0.2013, 0.1782
17.6900, -0.1841, -0.1621, 1.7651, -0.1489, -0.1738, 3.5291, 39850, -0.3674, -0.0156, -1.1323, 0.5974, 0.1943, 0.1859
17.7100, -0.0454, -0.0922, 1.8280, -0.1466, -0.1799, 3.5655, 39870, -0.3650, -0.0141, -1.1328, 0.6329, 0.1845, 0.1910
17.7300, 0.0763, -0.0304, 1.8672, -0.1426, -0.1836, 3.6031, 39890, -0.3625, -0.0123, -1.1332, 0.6714, 0.1768, 0.1926
17.7500, 0.1992, -0.0409, 1.9207, -0.1381, -0.1845, 3.6411, 39910, -0.3598, -0.0094, -1.1337, 0.7104, 0.1680, 0.1917
17.7700, 0.3274, 0.0339, 2.0578, -0.1321, -0.1833, 3.6811, 39930, -0.3572, -0.0063, -1.1345, 0.7536, 0.1556, 0.1878
17.7900, 0.4061, 0.0865, 2.1384, -0.1248, -0.1801, 3.7228, 39950, -0.3545, -0.0027, -1.1356, 0.7961, 0.1448, 0.1828
17.8100, 0.4631, 0.1091, 2.2180, -0.1169, -0.1756, 3.7657, 39970, -0.3524, 0.0011, -1.1364, 0.8411, 0.1313, 0.1775
17.8300, 0.5107, 0.1339, 2.2384, -0.1084, -0.1696, 3.8099, 39990, -0.3504, 0.0049, -1.1373, 0.8881, 0.1162, 0.1711
17.8500, 0.5212, 0.1938, 2.2744, -0.0990, -0.1628, 3.8544, 40010, -0.3481, 0.0097, -1.1384, 0.9335, 0.1025, 0.1626
17.8700, 0.5513, 0.2368, 2.3131, -0.0890, -0.1550, 3.8992, 40030, -0.3465, 0.0144, -1.1396, 0.9809, 0.0871, 0.1530
17.8900, 0.5548, 0.2610, 2.3927, -0.0782, -0.1466, 3.9457, 40050, -0.3449, 0.0195, -1.1409, 1.0284, 0.0707, 0.1442
17.9100, 0.5257, 0.2736, 2.4481, -0.0672, -0.1382, 3.9933, 40070, -0.3436, 0.0252, -1.1419, 1.0757, 0.0572, 0.1348
17.9300, 0.4545, 0.2489, 2.4424, -0.0560, -0.1307, 4.0415, 40090, -0.3426, 0.0309, -1.1431, 1.1230, 0.0434, 0.1260
17.9500, 0.3897, 0.2148, 2.4072, -0.0461, -0.1241, 4.0893, 40110, -0.3421, 0.0372, -1.1444, 1.1695, 0.0295, 0.1168
17.9700, 0.3629, 0.2591, 2.3951, -0.0363, -0.1180, 4.1368, 40130, -0.3416, 0.0436, -1.1454, 1.2153, 0.0166, 0.1100
17.9900, 0.3403, 0.2777, 2.4083, -0.0264, -0.1119, 4.1843, 40150, -0.3410, 0.0506, -1.1465, 1.2609, 0.0035, 0.1015
18.0100, 0.3567, 0.2451, 2.4026, -0.0164, -0.1056, 4.2319, 40170, -0.3404, 0.0578, -1.1459, 1.3080, 0.0086, 0.0869
18.0300, 0.3927, 0.3026, 2.3776, -0.0066, -0.0981, 4.2792, 40190, -0.3402, 0.0659, -1.1474, 1.3522, -0.0061, 0.0751
18.0500, 0.4771, 0.3462, 2.3260, 0.0031, -0.0888, 4.3258, 40210, -0.3407, 0.0732, -1.1501, 1.3944, -0.0318, 0.0655
18.0700, 0.5760, 0.3306, 2.2798, 0.0136, -0.0775, 4.3717, 40230, -0.3411, 0.0807, -1.1517, 1.4347, -0.0440, 0.0497
18.0900, 0.6101, 0.3620, 2.1648, 0.0239, -0.0644, 4.4157, 40250, -0.3421, 0.0876, -1.1536, 1.4745, -0.0561, 0.0335
18.1100, 0.5970, 0.3854, 2.1336, 0.0346, -0.0508, 4.4584, 40270, -0.3421, 0.0876, -1.1536, 1.4745, -0.0561, 0.0335
18.1300, 0.5980, 0.2631, 2.0903, 0.0431, -0.0370, 4.5007, 40290, -0.3421, 0.0876, -1.1536, 1.4745, -0.0561, 0.0335
18.1500, 0.5717, 0.1597, 2.0863, 0.0487, -0.0243, 4.5427, 40310, -0.3421, 0.0876, -1.1536, 1.4745, -0.0561, 0.0335
18.1700, 0.4819, 0.1263, 2.0855, 0.0529, -0.0124, 4.5846, 40330, -0.3421, 0.0876, -1.1536, 1.4745, -0.0561, 0.0335
18.1900, 0.4032, 0.0177, 1.9922, 0.0550, -0.0019, 4.6256, 40350, -0.3421, 0.0876, -1.1536, 1.4745, -0.0561, 0.0335
18.2100, 0.3298, -0.0422, 1.8551, 0.0550, 0.0075, 4.6644, 40370, -0.3421, 0.0876, -1.1536, 1.4745, -0.0561, 0.0335
18.2300, 0.2604, -0.0529, 1.8011, 0.0545, 0.0155, 4.7010, 40390, -0.3494, 0.1375, -1.1692, 1.7318, -0.0745, -0.0629
18.2500, 0.1957, -0.0965, 1.7043, 0.0529, 0.0223, 4.7365, 40410, -0.3509, 0.1440, -1.1693, 1.7663, -0.0671, -0.0674
18.2700, 0.1416, -0.1575, 1.6178, 0.0503, 0.0274, 4.7679, 40430, -0.3528, 0.1504, -1.1722, 1.7937, -0.0656, -0.0734
18.2900, 0.0900, -0.2113, 1.5546, 0.0464, 0.0318, 4.8012, 40450, -0.3542, 0.1565, -1.1749, 1.8246, -0.0624, -0.0790
18.3100, 0.0328, -0.2298, 1.5589, 0.0419, 0.0340, 4.8328, 40470, -0.3554, 0.1627, -1.1776, 1.8537, -0.0553, -0.0848
18.3300, 0.0339, -0.2298, 1.5315, 0.0367, 0.0354, 4.8639, 40490, -0.3567, 0.1676, -1.1797, 1.8851, -0.0499, -0.0875
18.3500, 0.0610, -0.1984, 1.4442, 0.0323, 0.0367, 4.8939, 40510, -0.3576, 0.1737, -1.1830, 1.9117, -0.0462, -0.0955
18.3700, 0.1145, -0.2048, 1.4041, 0.0283, 0.0382, 4.9224, 40530, -0.3601, 0.1794, -1.1861, 1.9354, -0.0480, -0.0986
18.3900, 0.1887, -0.2613, 1.4259, 0.0234, 0.0410, 4.9508, 40550, -0.3603, 0.1848, -1.1888, 1.9639, -0.0408, -0.1060
18.4100, 0.2349, -0.3182, 1.3883, 0.0166, 0.0450, 4.9787, 40570, -0.3607, 0.1901, -1.1910, 1.9915, -0.0317, -0.1123
18.4300, 0.2443, -0.3637, 1.3600, 0.0094, 0.0492, 5.0061, 40590, -0.3610, 0.1953, -1.1937, 2.0168, -0.0239, -0.1181
18.4500, 0.2271, -0.4252, 1.3119, 0.0010, 0.0531, 5.0325, 40610, -0.3614, 0.2002, -1.1966, 2.0421, -0.0158, -0.1238
18.4700, 0.1849, -0.5056, 1.3256, -0.0086, 0.0564, 5.0587, 40630, -0.3615, 0.2051, -1.1989, 2.0691, -0.0022, -0.1284
18.4900, 0.1379, -0.5483, 1.3361, -0.0202, 0.0585, 5.0850, 40650, -0.3616, 0.2103, -1.2010, 2.0957, 0.0119, -0.1321
18.5100, 0.1072, -0.6023, 1.2942, -0.0325, 0.0595, 5.1110, 40670, -0.3612, 0.2155, -1.2030, 2.1203, 0.0248, -0.1341
18.5300, 0.1142, -0.6349, 1.2383, -0.0459, 0.0599, 5.1356, 40690, -0.3606, 0.2210, -1.2046, 2.1434, 0.0387, -0.1357
18.5500, 0.1201, -0.6394, 1.0716, -0.0592, 0.0604, 5.1581, 40710, -0.3599, 0.2267, -1.2066, 2.1628, 0.0514, -0.1378
18.5700, 0.0976, -0.6026, 0.9254, -0.0723, 0.0611, 5.1777, 40730, -0.3593, 0.2326, -1.2081, 2.1798, 0.0653, -0.1393
18.5900, 0.1024, -0.6056, 0.8187, -0.0845, 0.0613, 5.1943, 40750, -0.3586, 0.2389, -1.2093, 2.1956, 0.0782, -0.1406
18.6100, 0.1153, -0.5916, 0.7631, -0.0967, 0.0614, 5.2095, 40770, -0.3576, 0.2450, -1.2099, 2.2126, 0.0984, -0.1455
18.6300, 0.1298, -0.5714, 0.7254, -0.1086, 0.0627, 5.2238, 40790, -0.3568, 0.2507, -1.2104, 2.2187, 0.1085, -0.1564
18.6500, 0.2048, -0.4983, 0.6720, -0.1197, 0.0642, 5.2372, 40810, -0.3560, 0.2590, -1.2134, 2.2389, 0.1114, -0.1521
18.6700, 0.2252, -0.4303, 0.5902, -0.1295, 0.0670, 5.2494, 40830, -0.3551, 0.2662, -1.2139, 2.2514, 0.1192, -0.1556
18.6900, 0.2419, -0.1169, 0.5158, -0.1351, 0.0700, 5.2604, 40850, -0.3546, 0.2736, -1.2136, 2.2610, 0.1206, -0.1600
18.7100, 0.2298, 0.1492, 0.4655, -0.1349, 0.0731, 5.2709, 40870, -0.3529, 0.2818, -1.2122, 2.2707, 0.1194, -0.1625
18.7300, 0.1908, 0.2631, 0.3583, -0.1312, 0.0759, 5.2796, 40890, -0.3516, 0.2894, -1.2114, 2.2771, 0.1121, -0.1649
18.7500, 0.0973, 0.2416, 0.3000, -0.1265, 0.0778, 5.2871, 40910, -0.3503, 0.2967, -1.2110, 2.2815, 0.1038, -0.1696
18.7700, -0.0046, 0.2798, 0.2825, -0.1220, 0.0782, 5.2934, 40930, -0.3490, 0.3043, -1.2095, 2.2867, 0.0961, -0.1680
18.7900, -0.1347, 0.2583, 0.3301, -0.1169, 0.0759, 5.3004, 40950, -0.3480, 0.3113, -1.2073, 2.2917, 0.0909, -0.1625
18.8100, -0.3231, 0.2844, 0.3779, -0.1114, 0.0707, 5.3079, 40970, -0.3468, 0.3184, -1.2048, 2.2991, 0.0856, -0.1546
18.8300, -0.4400, 0.3078, 0.4104, -0.1059, 0.0627, 5.3164, 40990, -0.3447, 0.3256, -1.2022, 2.3085, 0.0807, -0.1432
18.8500, -0.5685, 0.2895, 0.4430, -0.1007, 0.0524, 5.3257, 41010, -0.3435, 0.3320, -1.1996, 2.3174, 0.0773, -0.1320
18.8700, -0.6894, 0.2602, 0.5099, -0.0955, 0.0394, 5.3358, 41030, -0.3422, 0.3386, -1.1966, 2.3266, 0.0721, -0.1167
18.8900, -0.8055, 0.2661, 0.5400, -0.0902, 0.0236, 5.3466, 41050, -0.3410, 0.3448, -1.1936, 2.3353, 0.0676, -0.0983
18.9100, -0.9472, 0.2505, 0.5593, -0.0852, 0.0054, 5.3580, 41070, -0.3393, 0.3502, -1.1908, 2.3469, 0.0630, -0.0797
18.9300, -1.0555, 0.2494, 0.6066, -0.0799, -0.0148, 5.3702, 41090, -0.3375, 0.3555, -1.1872, 2.3584, 0.0584, -0.0564
18.9500, -1.1090, 0.1847, 0.6357, -0.0749, -0.0356, 5.3821, 41110, -0.3364, 0.3603, -1.1841, 2.3694, 0.0533, -0.0332
18.9700, -1.1531, 0.1822, 0.6346, -0.0698, -0.0599, 5.3955, 41130, -0.3341, 0.3646, -1.1807, 2.3834, 0.0485, -0.0081
18.9900, -1.1834, 0.1304, 0.6585, -0.0654, -0.0836, 5.4086, 41150, -0.3328, 0.3689, -1.1781, 2.3951, 0.0475, 0.0138
19.0100, -1.1705, 0.0677, 0.6706, -0.0616, -0.1072, 5.4220, 41170, -0.3316, 0.3719, -1.1759, 2.4079, 0.0454, 0.0330
19.0300, -1.1165, 0.0341, 0.6711, -0.0585, -0.1304, 5.4357, 41190, -0.3291, 0.3745, -1.1730, 2.4235, 0.0401, 0.0586
19.0500, -1.0641, 0.0151, 0.6830, -0.0559, -0.1518, 5.4493, 41210, -0.3289, 0.3772, -1.1722, 2.4325, 0.0404, 0.0720
19.0700, -0.9300, -0.0704, 0.6601, -0.0539, -0.1714, 5.4627, 41230, -0.3266, 0.3791, -1.1704, 2.4464, 0.0418, 0.0895
19.0900, -0.7649, -0.1183, 0.6488, -0.0525, -0.1881, 5.4758, 41250, -0.3240, 0.3809, -1.1693, 2.4600, 0.0432, 0.1016
19.1100, -0.5956, -0.1715, 0.6152, -0.0518, -0.2014, 5.4882, 41270, -0.3211, 0.3822, -1.1678, 2.4719, 0.0417, 0.1148
19.1300, -0.4102, -0.1992, 0.5983, -0.0518, -0.2108, 5.5006, 41290, -0.3179, 0.3832, -1.1673, 2.4841, 0.0438, 0.1217
19.1500, -0.2462, -0.2438, 0.5575, -0.0531, -0.2168, 5.5123, 41310, -0.3151, 0.3839, -1.1685, 2.4936, 0.0499, 0.1183
19.1700, -0.1046, -0.2527, 0.5273, -0.0545, -0.2197, 5.5234, 41330, -0.3109, 0.3843, -1.1689, 2.5052, 0.0531, 0.1187
19.1900, 0.0320, -0.2454, 0.4763, -0.0564, -0.2199, 5.5337, 41350, -0.3074, 0.3849, -1.1694, 2.5136, 0.0577, 0.1167
19.2100, 0.1156, -0.2212, 0.4438, -0.0579, -0.2182, 5.5433, 41370, -0.3023, 0.3847, -1.1701, 2.5232, 0.0569, 0.1142
19.2300, 0.1986, -0.2314, 0.3908, -0.0593, -0.2142, 5.5521, 41390, -0.2982, 0.3852, -1.1705, 2.5293, 0.0617, 0.1113
19.2500, 0.2736, -0.2091, 0.3658, -0.0606, -0.2086, 5.5599, 41410, -0.2938, 0.3848, -1.1716, 2.5366, 0.0667, 0.1020
19.2700, 0.3309, -0.1906, 0.3338, -0.0616, -0.2023, 5.5667, 41430, -0.2884, 0.3845, -1.1724, 2.5435, 0.0659, 0.0978
19.2900, 0.3465, -0.1355, 0.2992, -0.0625, -0.1946, 5.5735, 41450, -0.2836, 0.3838, -1.1729, 2.5489, 0.0690, 0.0930
19.3100, 0.3276, -0.0946, 0.2650, -0.0621, -0.1871, 5.5793, 41470, -0.2779, 0.3824, -1.1741, 2.5566, 0.0640, 0.0852
19.3300, 0.3223, -0.0790, 0.2508, -0.0609, -0.1799, 5.5845, 41490, -0.2741, 0.3816, -1.1709, 2.5556, 0.0667, 0.1012
19.3500, -0.6558, -0.1172, 0.1438, -0.0632, -0.1817, 5.5884, 41510, -0.2693, 0.3788, -1.1720, 2.5597, 0.0745, 0.1193
19.3700, -1.3727, -0.2142, 0.1825, -0.0651, -0.2047, 5.5922, 41530, -0.2647, 0.3763, -1.1717, 2.5626, 0.0795, 0.1432
19.3900, -1.3235, -0.2266, 0.1425, -0.0681, -0.2304, 5.5966, 41550, -0.2602, 0.3735, -1.1708, 2.5658, 0.0809, 0.1658
19.4100, -1.1705, -0.1339, 0.1642, -0.0698, -0.2569, 5.5999, 41570, -0.2560, 0.3706, -1.1705, 2.5679, 0.0792, 0.1896
19.4300, -1.1085, -0.0414, 0.1148, -0.0702, -0.2798, 5.6027, 41590, -0.2523, 0.3677, -1.1695, 2.5682, 0.0769, 0.2108
19.4500, -0.8555, -0.0183, 0.1175, -0.0693, -0.2985, 5.6044, 41610, -0.2484, 0.3645, -1.1698, 2.5700, 0.0759, 0.2247
19.4700, -0.4860, 0.0427, 0.0817, -0.0670, -0.3122, 5.6051, 41630, -0.2441, 0.3610, -1.1712, 2.5730, 0.0775, 0.2260
19.4900, -0.2690, 0.1812, 0.0785, -0.0639, -0.3190, 5.6055, 41650, -0.2406, 0.3583, -1.1704, 2.5718, 0.0688, 0.2341
19.5100, 0.0151, 0.3373, 0.0831, -0.0585, -0.3196, 5.6053, 41670, -0.2368, 0.3547, -1.1707, 2.5738, 0.0595, 0.2311
19.5300, 0.2949, 0.6300, 0.1126, -0.0496, -0.3156, 5.6037, 41690, -0.2324, 0.3515, -1.1716, 2.5784, 0.0423, 0.2205
19.5500, 0.5104, 0.9442, 0.1075, -0.0354, -0.3072, 5.6009, 41710, -0.2303, 0.3485, -1.1739, 2.5748, 0.0244, 0.2021
19.5700, 0.4201, 1.1372, -0.0519, -0.0162, -0.2964, 5.5955, 41730, -0.2303, 0.3485, -1.1739, 2.5748, 0.0244, 0.2021
19.5900, 0.4491, 1.0388, -0.2422, 0.0012, -0.2878, 5.5873, 41750, -0.2303, 0.3485, -1.1739, 2.5748, 0.0244, 0.2021
19.6100, 0.5104, 1.0383, -0.3620, 0.0195, -0.2775, 5.5753, 41770, -0.2303, 0.3485, -1.1739, 2.5748, 0.0244, 0.2021
19.6300, 0.4935, 1.0050, -0.4940, 0.0363, -0.2676, 5.5617, 41790, -0.2225, 0.3377, -1.1727, 2.5358, -0.0477, 0.1756
19.6500, 0.4948, 0.9604, -0.5526, 0.0510, -0.2574, 5.5470, 41810, -0.2225, 0.3377, -1.1727, 2.5358, -0.0477, 0.1756
19.6700, 0.4666, 0.8045, -0.5849, 0.0639, -0.2482, 5.5318, 41830, -0.2225, 0.3377, -1.1727, 2.5358, -0.0477, 0.1756
19.6900, 0.3669, 0.7397, -0.5333, 0.0768, -0.2407, 5.5175, 41850, -0.2160, 0.3263, -1.1706, 2.5011, -0.0848, 0.1582
19.7100, 0.3405, 0.6365, -0.5136, 0.0881, -0.2340, 5.5046, 41870, -0.2160, 0.3263, -1.1706, 2.5011, -0.0848, 0.1582
19.7300, 0.3086, 0.5548, -0.4602, 0.0983, -0.2278, 5.4932, 41890, -0.2115, 0.3186, -1.1691, 2.4831, -0.1018, 0.1479
19.7500, 0.2854, 0.4693, -0.4338, 0.1065, -0.2224, 5.4828, 41910, -0.2099, 0.3149, -1.1685, 2.4750, -0.1084, 0.1439
19.7700, 0.2282, 0.4701, -0.3422, 0.1133, -0.2182, 5.4739, 41930, -0.2090, 0.3119, -1.1678, 2.4668, -0.1163, 0.1391
19.7900, 0.2481, 0.4338, -0.2682, 0.1203, -0.2136, 5.4667, 41950, -0.2080, 0.3087, -1.1671, 2.4600, -0.1220, 0.1352
19.8100, 0.2330, 0.3973, -0.2269, 0.1265, -0.2093, 5.4606, 41970, -0.2070, 0.3055, -1.1664, 2.4539, -0.1289, 0.1307
19.8300, 0.2290, 0.3674, -0.2290, 0.1325, -0.2054, 5.4549, 41990, -0.2075, 0.3023, -1.1649, 2.4469, -0.1333, 0.1268
19.8500, 0.2586, 0.2983, -0.2191, 0.1370, -0.2009, 5.4496, 42010, -0.2062, 0.2990, -1.1644, 2.4437, -0.1371, 0.1215
19.8700, 0.2642, 0.2158, -0.1532, 0.1403, -0.1955, 5.4453, 42030, -0.2062, 0.2990, -1.1644, 2.4437, -0.1371, 0.1215
19.8900, 0.2465, 0.1435, -0.0828, 0.1426, -0.1906, 5.4430, 42050, -0.2064, 0.2918, -1.1617, 2.4362, -0.1403, 0.1125
19.9100, 0.2172, 0.1097, -0.0317, 0.1445, -0.1855, 5.4419, 42070, -0.2060, 0.2884, -1.1601, 2.4349, -0.1423, 0.1088
19.9300, 0.1898, 0.0640, -0.0094, 0.1463, -0.1815, 5.4421, 42090, -0.2054, 0.2852, -1.1584, 2.4349, -0.1428, 0.1054
19.9500, 0.2384, 0.0140, 0.0368, 0.1477, -0.1778, 5.4426, 42110, -0.2046, 0.2818, -1.1566, 2.4347, -0.1428, 0.0990
19.9700, 0.3870, -0.0226, 0.0672, 0.1478, -0.1721, 5.4439, 42130, -0.2036, 0.2787, -1.1548, 2.4351, -0.1417, 0.0886
19.9900, 0.5523, -0.0874, 0.1658, 0.1475, -0.1625, 5.4466, 42150, -0.2026, 0.2754, -1.1526, 2.4373, -0.1385, 0.0758
20.0100, 0.6523, -0.1610, 0.2129, 0.1461, -0.1499, 5.4512, 42170, -0.2015, 0.2720, -1.1505, 2.4398, -0.1351, 0.0602
20.0300, 0.7289, -0.2430, 0.2717, 0.1431, -0.1356, 5.4568, 42190, -0.2003, 0.2687, -1.1478, 2.4425, -0.1292, 0.0443
20.0500, 0.8171, -0.3037, 0.3282, 0.1388, -0.1192, 5.4636, 42210, -0.1984, 0.2650, -1.1451, 2.4484, -0.1237, 0.0271
20.0700, 0.8461, -0.3524, 0.3857, 0.1333, -0.1018, 5.4720, 42230, -0.1962, 0.2626, -1.1430, 2.4526, -0.1131, 0.0076
20.0900, 0.8131, -0.3749, 0.4292, 0.1272, -0.0845, 5.4810, 42250, -0.1943, 0.2587, -1.1397, 2.4589, -0.1062, -0.0088
20.1100, 0.7781, -0.4010, 0.4981, 0.1204, -0.0677, 5.4912, 42270, -0.1943, 0.2587, -1.1397, 2.4589, -0.1062, -0.0088
20.1300, 0.7155, -0.4456, 0.5905, 0.1129, -0.0520, 5.5027, 42290, -0.1943, 0.2587, -1.1397, 2.4589, -0.1062, -0.0088
20.1500, 0.6883, -0.5099, 0.6932, 0.1044, -0.0367, 5.5163, 42310, -0.1943, 0.2587, -1.1397, 2.4589, -0.1062, -0.0088
20.1700, 0.7445, -0.5800, 0.8485, 0.0944, -0.0204, 5.5323, 42330, -0.1838, 0.2392, -1.1268, 2.5128, -0.0623, -0.0761
20.1900, 0.8093, -0.6007, 0.9883, 0.0834, -0.0028, 5.5512, 42350, -0.1811, 0.2340, -1.1238, 2.5317, -0.0510, -0.0931
20.2100, 0.7260, -0.5548, 1.0523, 0.0721, 0.0145, 5.5721, 42370, -0.1786, 0.2294, -1.1204, 2.5490, -0.0427, -0.1058
20.2300, 0.4524, -0.3685, 0.9469, 0.0627, 0.0279, 5.5927, 42390, -0.1760, 0.2243, -1.1171, 2.5638, -0.0356, -0.1113
20.2500, 0.1244, -0.3102, 0.6642, 0.0555, 0.0344, 5.6088, 42410, -0.1734, 0.2191, -1.1141, 2.5765, -0.0288, -0.1122
20.2700, -0.0723, -0.2486, 0.5402, 0.0496, 0.0347, 5.6198, 42430, -0.1705, 0.2137, -1.1113, 2.5888, -0.0223, -0.1128
20.2900, -0.0895, -0.2975, 0.5803, 0.0440, 0.0337, 5.6315, 42450, -0.1705, 0.2137, -1.1113, 2.5888, -0.0223, -0.1128
20.3100, 0.0266, -0.4034, 0.7491, 0.0370, 0.0335, 5.6447, 42470, -0.1705, 0.2137, -1.1113, 2.5888, -0.0223, -0.1128
20.3300, 0.0266, -0.4034, 0.7491, 0.0370, 0.0335, 5.6447, 42470, -0.1705, 0.2137, -1.1113, 2.5888, -0.0223, -0.1128
20.3500, 0.1771, -0.3185, 1.0254, 0.0208, 0.0401, 5.6810, 42510, -0.1556, 0.1900, -1.1029, 2.6625, 0.0032, -0.1218
20.3700, 0.1771, -0.3185, 1.0254, 0.0208, 0.0401, 5.6810, 42510, -0.1528, 0.1843, -1.1019, 2.6838, 0.0058, -0.1255
20.3900, 0.1282, -0.0712, 1.0520, 0.0093, 0.0475, 5.7243, 42550, -0.1497, 0.1791, -1.1017, 2.7027, 0.0095, -0.1259
20.4100, -0.1513, -0.0970, 0.9843, 0.0056, 0.0476, 5.7439, 42570, -0.1462, 0.1731, -1.1015, 2.7236, 0.0085, -0.1238
20.4300, -0.1411, -0.0809, 1.0660, 0.0037, 0.0454, 5.7653, 42590, -0.1423, 0.1669, -1.1016, 2.7459, 0.0135, -0.1223
20.4500, -0.1411, -0.0809, 1.0660, 0.0037, 0.0454, 5.7653, 42590, -0.1386, 0.1608, -1.1019, 2.7685, 0.0161, -0.1213
20.4700, -0.1554, 0.0573, 1.1423, 0.0010, 0.0408, 5.8099, 42630, -0.1349, 0.1545, -1.1019, 2.7923, 0.0178, -0.1223
20.4900, 0.0422, -0.1922, 1.2243, -0.0002, 0.0410, 5.8339, 42650, -0.1307, 0.1483, -1.1024, 2.8174, 0.0212, -0.1251
20.5100, 0.1161, -0.0925, 1.2576, -0.0021, 0.0421, 5.8587, 42670, -0.1263, 0.1420, -1.1031, 2.8431, 0.0266, -0.1283
20.5300, 0.1161, -0.0925, 1.2576, -0.0021, 0.0421, 5.8587, 42670, -0.1219, 0.1364, -1.1036, 2.8678, 0.0279, -0.1324
