time (s), accel_x (m/s^2), accel_y (m/s^2), accel_z (m/s^2), gyro_x (rad/s), gyro_y (rad/s), gyro_z (rad/s), x (m), y (m), z (m), yaw (rad), pitch (rad), roll (rad), mocap_counter, counter, desired x, desired y, desired z, desired yaw
0.0000, -0.5590, 0.0981, -10.0224, 0.0035, 0.0003, -0.0097, -0.0944, -0.0021, -0.0918, -0.0024, 0.0017, -0.0050, 889, 50859, 0.0000, 0.0000, 0.0000, 0.0000
0.0200, -0.5590, 0.0981, -10.0224, 0.0035, 0.0003, -0.0097, -0.0944, -0.0021, -0.0918, -0.0025, 0.0018, -0.0042, 890, 50859, 0.0000, 0.0000, 0.0000, 0.0000
0.0400, -0.5590, 0.0981, -10.0224, 0.0035, 0.0003, -0.0097, -0.0943, -0.0021, -0.0917, -0.0024, 0.0015, -0.0043, 891, 50859, 0.0000, 0.0000, 0.0000, 0.0000
0.0600, -0.5590, 0.0981, -10.0224, 0.0035, 0.0003, -0.0097, -0.0945, -0.0021, -0.0919, -0.0025, 0.0019, -0.0047, 892, 50859, 0.0000, 0.0000, 0.0000, 0.0000
0.0800, -0.5590, 0.0981, -10.0224, 0.0035, 0.0003, -0.0097, -0.0944, -0.0021, -0.0918, -0.0023, 0.0015, -0.0049, 893, 50859, 0.0000, 0.0000, 0.0000, 0.0000
0.1000, -0.5590, 0.0981, -10.0224, 0.0035, 0.0003, -0.0097, -0.0943, -0.0022, -0.0917, -0.0025, 0.0015, -0.0044, 894, 50859, 0.0000, 0.0000, 0.0000, 0.0000
0.1200, -0.5590, 0.0981, -10.0224, 0.0035, 0.0003, -0.0097, -0.0944, -0.0022, -0.0917, -0.0024, 0.0017, -0.0037, 895, 50859, 0.0000, 0.0000, 0.0000, 0.0000
0.1400, -0.5590, 0.0981, -10.0224, 0.0035, 0.0003, -0.0097, -0.0944, -0.0021, -0.0918, -0.0023, 0.0015, -0.0047, 896, 50859, 0.0000, 0.0000, 0.0000, 0.0000
0.1600, -0.5590, 0.0981, -10.0224, 0.0035, 0.0003, -0.0097, -0.0945, -0.0022, -0.0918, -0.0025, 0.0018, -0.0049, 897, 50859, 0.0000, 0.0000, 0.0000, 0.0000
0.1800, -0.5590, 0.0981, -10.0224, 0.0035, 0.0003, -0.0097, -0.0943, -0.0021, -0.0918, -0.0024, 0.0016, -0.0047, 898, 50859, 0.0000, 0.0000, 0.0000, 0.0000
0.2000, -0.5590, 0.0981, -10.0224, 0.0035, 0.0003, -0.0097, -0.0943, -0.0022, -0.0918, -0.0024, 0.0017, -0.0043, 899, 50859, 0.0000, 0.0000, 0.0000, 0.0000
0.2200, -0.5590, 0.0981, -10.0224, 0.0035, 0.0003, -0.0097, -0.0944, -0.0021, -0.0917, -0.0025, 0.0017, -0.0041, 900, 50859, 0.0000, 0.0000, 0.0000, 0.0000
0.2400, -0.5590, 0.0981, -10.0224, 0.0035, 0.0003, -0.0097, -0.0944, -0.0022, -0.0919, -0.0023, 0.0017, -0.0048, 901, 50859, 0.0000, 0.0000, 0.0000, 0.0000
0.2600, -0.5590, 0.0981, -10.0224, 0.0035, 0.0003, -0.0097, -0.0944, -0.0022, -0.0918, -0.0024, 0.0017, -0.0051, 902, 50859, 0.0000, 0.0000, 0.0000, 0.0000
0.2800, -0.5590, 0.0981, -10.0224, 0.0035, 0.0003, -0.0097, -0.0943, -0.0021, -0.0919, -0.0023, 0.0015, -0.0047, 903, 50859, 0.0000, 0.0000, 0.0000, 0.0000
0.3000, -0.5590, 0.0981, -10.0224, 0.0035, 0.0003, -0.0097, -0.0943, -0.0022, -0.0917, -0.0024, 0.0015, -0.0042, 904, 50859, 0.0000, 0.0000, 0.0000, 0.0000
0.3200, -0.5590, 0.0981, -10.0224, 0.0035, 0.0003, -0.0097, -0.0944, -0.0021, -0.0918, -0.0026, 0.0017, -0.0043, 905, 50859, 0.0000, 0.0000, 0.0000, 0.0000
0.3400, -0.5590, 0.0981, -10.0224, 0.0035, 0.0003, -0.0097, -0.0944, -0.0021, -0.0918, -0.0025, 0.0018, -0.0044, 906, 50859, 0.0000, 0.0000, 0.0000, 0.0000
0.3600, -0.5590, 0.0981, -10.0224, 0.0035, 0.0003, -0.0097, -0.0944, -0.0022, -0.0918, -0.0024, 0.0017, -0.0049, 907, 50859, 0.0000, 0.0000, 0.0000, 0.0000
0.3800, -0.5590, 0.0981, -10.0224, 0.0035, 0.0003, -0.0097, -0.0943, -0.0021, -0.0919, -0.0027, 0.0016, -0.0044, 908, 50859, 0.0000, 0.0000, 0.0000, 0.0000
0.4000, -0.5590, 0.0981, -10.0224, 0.0035, 0.0003, -0.0097, -0.0944, -0.0021, -0.0917, -0.0024, 0.0014, -0.0040, 909, 50859, 0.0000, 0.0000, 0.0000, 0.0000
0.4200, -0.5590, 0.0981, -10.0224, 0.0035, 0.0003, -0.0097, -0.0943, -0.0021, -0.0919, -0.0025, 0.0018, -0.0046, 910, 50859, 0.0000, 0.0000, 0.0000, 0.0000
0.4400, -0.5590, 0.0981, -10.0224, 0.0035, 0.0003, -0.0097, -0.0944, -0.0021, -0.0917, -0.0025, 0.0013, -0.0043, 911, 50859, 0.0000, 0.0000, 0.0000, 0.0000
0.4600, -0.5590, 0.0981, -10.0224, 0.0035, 0.0003, -0.0097, -0.0943, -0.0022, -0.0919, -0.0023, 0.0017, -0.0047, 912, 50859, 0.0000, 0.0000, 0.0000, 0.0000
0.4800, -0.5590, 0.0981, -10.0224, 0.0035, 0.0003, -0.0097, -0.0943, -0.0021, -0.0918, -0.0025, 0.0015, -0.0041, 913, 50859, 0.0000, 0.0000, 0.0000, 0.0000
0.5000, -0.5590, 0.0981, -10.0224, 0.0035, 0.0003, -0.0097, -0.0944, -0.0021, -0.0917, -0.0024, 0.0016, -0.0042, 914, 50859, 0.0000, 0.0000, 0.0000, 0.0000
0.5200, -0.5590, 0.0981, -10.0224, 0.0035, 0.0003, -0.0097, -0.0943, -0.0021, -0.0919, -0.0025, 0.0018, -0.0047, 915, 50859, 0.0000, 0.0000, 0.0000, 0.0000
0.5400, -0.5590, 0.0981, -10.0224, 0.0035, 0.0003, -0.0097, -0.0944, -0.0021, -0.0917, -0.0026, 0.0015, -0.0046, 916, 50859, 0.0000, 0.0000, 0.0000, 0.0000
0.5600, -0.5590, 0.0981, -10.0224, 0.0035, 0.0003, -0.0097, -0.0943, -0.0022, -0.0919, -0.0025, 0.0017, -0.0041, 917, 50859, 0.0000, 0.0000, 0.0000, 0.0000
0.5800, -0.5590, 0.0981, -10.0224, 0.0035, 0.0003, -0.0097, -0.0944, -0.0021, -0.0917, -0.0023, 0.0014, -0.0039, 918, 50859, 0.0000, 0.0000, 0.0000, 0.0000
0.6000, -0.5590, 0.0981, -10.0224, 0.0035, 0.0003, -0.0097, -0.0943, -0.0022, -0.0918, -0.0026, 0.0015, -0.0041, 919, 50859, 0.0000, 0.0000, 0.0000, 0.0000
0.6200, -0.5590, 0.0981, -10.0224, 0.0035, 0.0003, -0.0097, -0.0944, -0.0021, -0.0918, -0.0024, 0.0018, -0.0050, 920, 50859, 0.0000, 0.0000, 0.0000, 0.0000
0.6400, -0.5590, 0.0981, -10.0224, 0.0035, 0.0003, -0.0097, -0.0943, -0.0021, -0.0917, -0.0025, 0.0013, -0.0045, 921, 50859, 0.0000, 0.0000, 0.0000, 0.0000
0.6600, -0.5590, 0.0981, -10.0224, 0.0035, 0.0003, -0.0097, -0.0943, -0.0022, -0.0918, -0.0025, 0.0016, -0.0042, 922, 50859, 0.0000, 0.0000, 0.0000, 0.0000
0.6800, -0.5590, 0.0981, -10.0224, 0.0035, 0.0003, -0.0097, -0.0944, -0.0021, -0.0917, -0.0024, 0.0015, -0.0043, 923, 50859, 0.0000, 0.0000, 0.0000, 0.0000
0.7000, -0.5590, 0.0981, -10.0224, 0.0035, 0.0003, -0.0097, -0.0944, -0.0021, -0.0919, -0.0026, 0.0017, -0.0048, 924, 50859, 0.0000, 0.0000, 0.0000, 0.0000
0.7200, -0.5590, 0.0981, -10.0224, 0.0035, 0.0003, -0.0097, -0.0943, -0.0021, -0.0917, -0.0025, 0.0016, -0.0044, 925, 50859, 0.0000, 0.0000, 0.0000, 0.0000
0.7400, -0.5590, 0.0981, -10.0224, 0.0035, 0.0003, -0.0097, -0.0944, -0.0021, -0.0918, -0.0023, 0.0014, -0.0047, 926, 50859, 0.0000, 0.0000, 0.0000, 0.0000
0.7600, -0.5590, 0.0981, -10.0224, 0.0035, 0.0003, -0.0097, -0.0943, -0.0022, -0.0918, -0.0022, 0.0014, -0.0042, 927, 50859, 0.0000, 0.0000, 0.0000, 0.0000
0.7800, -0.5590, 0.0981, -10.0224, 0.0035, 0.0003, -0.0097, -0.0944, -0.0021, -0.0918, -0.0025, 0.0018, -0.0044, 928, 50859, 0.0000, 0.0000, 0.0000, 0.0000
0.8000, -0.5590, 0.0981, -10.0224, 0.0035, 0.0003, -0.0097, -0.0944, -0.0022, -0.0919, -0.0023, 0.0014, -0.0048, 929, 50859, 0.0000, 0.0000, 0.0000, 0.0000
0.8200, -0.5590, 0.0981, -10.0224, 0.0035, 0.0003, -0.0097, -0.0943, -0.0022, -0.0917, -0.0026, 0.0015, -0.0046, 930, 50859, 0.0000, 0.0000, 0.0000, 0.0000
0.8400, -0.5590, 0.0981, -10.0224, 0.0035, 0.0003, -0.0097, -0.0944, -0.0021, -0.0919, -0.0024, 0.0016, -0.0046, 931, 50859, 0.0000, 0.0000, 0.0000, 0.0000
0.8600, -0.5590, 0.0981, -10.0224, 0.0035, 0.0003, -0.0097, -0.0944, -0.0021, -0.0917, -0.0026, 0.0014, -0.0043, 932, 50859, 0.0000, 0.0000, 0.0000, 0.0000
0.8800, -0.5590, 0.0981, -10.0224, 0.0035, 0.0003, -0.0097, -0.0944, -0.0021, -0.0918, -0.0026, 0.0019, -0.0047, 933, 50859, 0.0000, 0.0000, 0.0000, 0.0000
0.9000, -0.5590, 0.0981, -10.0224, 0.0035, 0.0003, -0.0097, -0.0943, -0.0021, -0.0918, -0.0023, 0.0013, -0.0049, 934, 50859, 0.0000, 0.0000, 0.0000, 0.0000
0.9200, -0.5590, 0.0981, -10.0224, 0.0035, 0.0003, -0.0097, -0.0943, -0.0022, -0.0917, -0.0025, 0.0014, -0.0043, 935, 50859, 0.0000, 0.0000, 0.0000, 0.0000
0.9400, -0.5590, 0.0981, -10.0224, 0.0035, 0.0003, -0.0097, -0.0944, -0.0021, -0.0918, -0.0024, 0.0018, -0.0042, 936, 50859, 0.0000, 0.0000, 0.0000, 0.0000
0.9600, -0.5590, 0.0981, -10.0224, 0.0035, 0.0003, -0.0097, -0.0944, -0.0021, -0.0917, -0.0024, 0.0015, -0.0047, 937, 50859, 0.0000, 0.0000, 0.0000, 0.0000
0.9800, -0.5590, 0.0981, -10.0224, 0.0035, 0.0003, -0.0097, -0.0944, -0.0021, -0.0918, -0.0024, 0.0019, -0.0051, 938, 50859, 0.0000, 0.0000, 0.0000, 0.0000
1.0000, -0.5590, 0.0981, -10.0224, 0.0035, 0.0003, -0.0097, -0.0944, -0.0022, -0.0919, -0.0023, 0.0015, -0.0048, 939, 50859, 0.0000, 0.0000, 0.0000, 0.0000
1.0200, -0.5590, 0.0981, -10.0224, 0.0035, 0.0003, -0.0097, -0.0944, -0.0021, -0.0918, -0.0025, 0.0017, -0.0044, 940, 50859, 0.0000, 0.0000, 0.0000, 0.0000
1.0400, -0.5590, 0.0981, -10.0224, 0.0035, 0.0003, -0.0097, -0.0943, -0.0021, -0.0918, -0.0024, 0.0021, -0.0049, 941, 50859, 0.0000, 0.0000, 0.0000, 0.0000
1.0600, -0.5590, 0.0981, -10.0224, 0.0035, 0.0003, -0.0097, -0.0943, -0.0021, -0.0918, -0.0023, 0.0018, -0.0045, 942, 50859, 0.0000, 0.0000, 0.0000, 0.0000
1.0800, -0.5590, 0.0981, -10.0224, 0.0035, 0.0003, -0.0097, -0.0943, -0.0021, -0.0917, -0.0026, 0.0015, -0.0045, 943, 50859, 0.0000, 0.0000, 0.0000, 0.0000
1.1000, -0.5590, 0.0981, -10.0224, 0.0035, 0.0003, -0.0097, -0.0944, -0.0021, -0.0918, -0.0022, 0.0016, -0.0046, 944, 50859, 0.0000, 0.0000, 0.0000, 0.0000
1.1200, -0.5590, 0.0981, -10.0224, 0.0035, 0.0003, -0.0097, -0.0944, -0.0021, -0.0917, -0.0024, 0.0018, -0.0040, 945, 50859, 0.0000, 0.0000, 0.0000, 0.0000
1.1400, -0.5590, 0.0981, -10.0224, 0.0035, 0.0003, -0.0097, -0.0944, -0.0021, -0.0918, -0.0024, 0.0018, -0.0049, 946, 50859, 0.0000, 0.0000, 0.0000, 0.0000
1.1600, -0.5590, 0.0981, -10.0224, 0.0035, 0.0003, -0.0097, -0.0944, -0.0021, -0.0919, -0.0024, 0.0015, -0.0049, 947, 50859, 0.0000, 0.0000, 0.0000, 0.0000
1.1800, -0.5590, 0.0981, -10.0224, 0.0035, 0.0003, -0.0097, -0.0943, -0.0021, -0.0918, -0.0025, 0.0015, -0.0047, 948, 50859, 0.0000, 0.0000, 0.0000, 0.0000
1.2000, -0.5590, 0.0981, -10.0224, 0.0035, 0.0003, -0.0097, -0.0944, -0.0021, -0.0918, -0.0024, 0.0018, -0.0039, 949, 50859, 0.0000, 0.0000, 0.0000, 0.0000
1.2200, -0.5590, 0.0981, -10.0224, 0.0035, 0.0003, -0.0097, -0.0943, -0.0021, -0.0918, -0.0023, 0.0015, -0.0045, 950, 50859, 0.0000, 0.0000, 0.0000, 0.0000
1.2400, -0.5590, 0.0981, -10.0224, 0.0035, 0.0003, -0.0097, -0.0943, -0.0022, -0.0918, -0.0025, 0.0017, -0.0048, 951, 50859, 0.0000, 0.0000, 0.0000, 0.0000
1.2600, -0.5590, 0.0981, -10.0224, 0.0035, 0.0003, -0.0097, -0.0944, -0.0021, -0.0917, -0.0025, 0.0013, -0.0046, 952, 50859, 0.0000, 0.0000, 0.0000, 0.0000
1.2800, -0.5590, 0.0981, -10.0224, 0.0035, 0.0003, -0.0097, -0.0943, -0.0022, -0.0918, -0.0023, 0.0016, -0.0040, 953, 50859, 0.0000, 0.0000, 0.0000, 0.0000
1.3000, -0.5590, 0.0981, -10.0224, 0.0035, 0.0003, -0.0097, -0.0944, -0.0021, -0.0917, -0.0025, 0.0018, -0.0042, 954, 50859, 0.0000, 0.0000, 0.0000, 0.0000
1.3200, -0.5590, 0.0981, -10.0224, 0.0035, 0.0003, -0.0097, -0.0943, -0.0021, -0.0918, -0.0024, 0.0016, -0.0051, 955, 50859, 0.0000, 0.0000, 0.0000, 0.0000
1.3400, -0.5590, 0.0981, -10.0224, 0.0035, 0.0003, -0.0097, -0.0943, -0.0022, -0.0918, -0.0027, 0.0017, -0.0046, 956, 50859, 0.0000, 0.0000, 0.0000, 0.0000
1.3600, -0.5590, 0.0981, -10.0224, 0.0035, 0.0003, -0.0097, -0.0944, -0.0020, -0.0917, -0.0025, 0.0016, -0.0044, 957, 50859, 0.0000, 0.0000, 0.0000, 0.0000
1.3800, -0.5590, 0.0981, -10.0224, 0.0035, 0.0003, -0.0097, -0.0943, -0.0021, -0.0919, -0.0023, 0.0017, -0.0040, 958, 50859, 0.0000, 0.0000, 0.0000, 0.0000
1.4000, -0.5590, 0.0981, -10.0224, 0.0035, 0.0003, -0.0097, -0.0944, -0.0021, -0.0917, -0.0025, 0.0018, -0.0047, 959, 50859, 0.0000, 0.0000, 0.0000, 0.0000
1.4200, -0.5590, 0.0981, -10.0224, 0.0035, 0.0003, -0.0097, -0.0943, -0.0021, -0.0918, -0.0024, 0.0018, -0.0048, 960, 50859, 0.0000, 0.0000, 0.0000, 0.0000
1.4400, -0.5590, 0.0981, -10.0224, 0.0035, 0.0003, -0.0097, -0.0943, -0.0022, -0.0917, -0.0024, 0.0015, -0.0044, 961, 50859, 0.0000, 0.0000, 0.0000, 0.0000
1.4600, -0.5590, 0.0981, -10.0224, 0.0035, 0.0003, -0.0097, -0.0943, -0.0021, -0.0917, -0.0023, 0.0017, -0.0039, 962, 50859, 0.0000, 0.0000, 0.0000, 0.0000
1.4800, -0.5590, 0.0981, -10.0224, 0.0035, 0.0003, -0.0097, -0.0944, -0.0021, -0.0919, -0.0022, 0.0017, -0.0049, 963, 50859, 0.0000, 0.0000, 0.0000, 0.0000
1.5000, -0.5590, 0.0981, -10.0224, 0.0035, 0.0003, -0.0097, -0.0944, -0.0021, -0.0917, -0.0024, 0.0017, -0.0050, 964, 50859, 0.0000, 0.0000, 0.0000, 0.0000
1.5200, -0.5590, 0.0981, -10.0224, 0.0035, 0.0003, -0.0097, -0.0943, -0.0021, -0.0919, -0.0025, 0.0018, -0.0047, 965, 50859, 0.0000, 0.0000, 0.0000, 0.0000
1.5400, -0.5590, 0.0981, -10.0224, 0.0035, 0.0003, -0.0097, -0.0944, -0.0021, -0.0917, -0.0023, 0.0015, -0.0046, 966, 50859, 0.0000, 0.0000, 0.0000, 0.0000
1.5600, -0.5590, 0.0981, -10.0224, 0.0035, 0.0003, -0.0097, -0.0944, -0.0021, -0.0919, -0.0025, 0.0019, -0.0047, 967, 50859, 0.0000, 0.0000, 0.0000, 0.0000
1.5800, -0.5590, 0.0981, -10.0224, 0.0035, 0.0003, -0.0097, -0.0943, -0.0021, -0.0917, -0.0024, 0.0017, -0.0043, 968, 50859, 0.0000, 0.0000, 0.0000, 0.0000
1.6000, -0.5590, 0.0981, -10.0224, 0.0035, 0.0003, -0.0097, -0.0943, -0.0022, -0.0918, -0.0025, 0.0018, -0.0045, 969, 50859, 0.0000, 0.0000, 0.0000, 0.0000
1.6200, -0.5590, 0.0981, -10.0224, 0.0035, 0.0003, -0.0097, -0.0943, -0.0021, -0.0917, -0.0025, 0.0015, -0.0043, 970, 50859, 0.0000, 0.0000, 0.0000, 0.0000
1.6400, -0.5590, 0.0981, -10.0224, 0.0035, 0.0003, -0.0097, -0.0944, -0.0021, -0.0917, -0.0022, 0.0014, -0.0037, 971, 50859, 0.0000, 0.0000, 0.0000, 0.0000
1.6600, -0.5590, 0.0981, -10.0224, 0.0035, 0.0003, -0.0097, -0.0943, -0.0021, -0.0919, -0.0023, 0.0019, -0.0048, 972, 50859, 0.0000, 0.0000, 0.0000, 0.0000
1.6800, -0.5590, 0.0981, -10.0224, 0.0035, 0.0003, -0.0097, -0.0944, -0.0022, -0.0918, -0.0023, 0.0017, -0.0048, 973, 50859, 0.0000, 0.0000, 0.0000, 0.0000
1.7000, -0.5590, 0.0981, -10.0224, 0.0035, 0.0003, -0.0097, -0.0943, -0.0021, -0.0919, -0.0022, 0.0018, -0.0049, 974, 50859, 0.0000, 0.0000, 0.0000, 0.0000
1.7200, -0.5590, 0.0981, -10.0224, 0.0035, 0.0003, -0.0097, -0.0944, -0.0021, -0.0917, -0.0023, 0.0016, -0.0041, 975, 50859, 0.0000, 0.0000, 0.0000, 0.0000
1.7400, -0.5590, 0.0981, -10.0224, 0.0035, 0.0003, -0.0097, -0.0944, -0.0021, -0.0918, -0.0025, 0.0018, -0.0044, 976, 50859, 0.0000, 0.0000, 0.0000, 0.0000
1.7510, -0.5590, 0.0981, -10.0224, 0.0035, 0.0003, -0.0097, -0.0943, -0.0021, -0.0918, -0.0023, 0.0017, -0.0051, 977, 50859, 0.0000, 0.0000, 0.0000, 0.0000
1.7710, -0.5590, 0.0981, -10.0224, 0.0035, 0.0003, -0.0097, -0.0944, -0.0021, -0.0918, -0.0026, 0.0016, -0.0044, 978, 50859, 0.0000, 0.0000, 0.0000, 0.0000
1.7910, -0.5590, 0.0981, -10.0224, 0.0035, 0.0003, -0.0097, -0.0943, -0.0021, -0.0918, -0.0024, 0.0015, -0.0041, 979, 50859, 0.0000, 0.0000, 0.0000, 0.0000
1.8110, -0.5590, 0.0981, -10.0224, 0.0035, 0.0003, -0.0097, -0.0943, -0.0021, -0.0918, -0.0022, 0.0013, -0.0042, 980, 50859, 0.0000, 0.0000, 0.0000, 0.0000
1.8310, -0.5590, 0.0981, -10.0224, 0.0035, 0.0003, -0.0097, -0.0943, -0.0021, -0.0918, -0.0025, 0.0016, -0.0041, 981, 50859, 0.0000, 0.0000, 0.0000, 0.0000
1.8510, -0.5590, 0.0981, -10.0224, 0.0035, 0.0003, -0.0097, -0.0943, -0.0021, -0.0919, -0.0022, 0.0017, -0.0049, 982, 50859, 0.0000, 0.0000, 0.0000, 0.0000
1.8710, -0.5590, 0.0981, -10.0224, 0.0035, 0.0003, -0.0097, -0.0943, -0.0021, -0.0918, -0.0025, 0.0014, -0.0042, 983, 50859, 0.0000, 0.0000, 0.0000, 0.0000
1.8910, -0.5590, 0.0981, -10.0224, 0.0035, 0.0003, -0.0097, -0.0943, -0.0021, -0.0918, -0.0023, 0.0017, -0.0041, 984, 50859, 0.0000, 0.0000, 0.0000, 0.0000
1.9110, -0.5590, 0.0981, -10.0224, 0.0035, 0.0003, -0.0097, -0.0944, -0.0021, -0.0919, -0.0021, 0.0017, -0.0047, 985, 50859, 0.0000, 0.0000, 0.0000, 0.0000
1.9310, -0.5590, 0.0981, -10.0224, 0.0035, 0.0003, -0.0097, -0.0943, -0.0020, -0.0918, -0.0026, 0.0016, -0.0042, 986, 50859, 0.0000, 0.0000, 0.0000, 0.0000
1.9510, -0.5590, 0.0981, -10.0224, 0.0035, 0.0003, -0.0097, -0.0943, -0.0022, -0.0918, -0.0025, 0.0018, -0.0044, 987, 50859, 0.0000, 0.0000, 0.0000, 0.0000
1.9710, -0.5590, 0.0981, -10.0224, 0.0035, 0.0003, -0.0097, -0.0944, -0.0021, -0.0917, -0.0022, 0.0015, -0.0040, 988, 50859, 0.0000, 0.0000, 0.0000, 0.0000
1.9910, -0.5590, 0.0981, -10.0224, 0.0035, 0.0003, -0.0097, -0.0942, -0.0020, -0.0918, -0.0024, 0.0014, -0.0043, 989, 50859, 0.0000, 0.0000, 0.0000, 0.0000
2.0110, -0.5590, 0.0981, -10.0224, 0.0035, 0.0003, -0.0097, -0.0944, -0.0021, -0.0918, -0.0023, 0.0018, -0.0050, 990, 50859, 0.0000, 0.0000, 0.0000, 0.0000
2.0310, -0.5590, 0.0981, -10.0224, 0.0035, 0.0003, -0.0097, -0.0943, -0.0021, -0.0918, -0.0023, 0.0017, -0.0048, 991, 50859, 0.0000, 0.0000, 0.0000, 0.0000
2.0510, -0.5590, 0.0981, -10.0224, 0.0035, 0.0003, -0.0097, -0.0944, -0.0022, -0.0917, -0.0023, 0.0019, -0.0040, 992, 50859, 0.0000, 0.0000, 0.0000, 0.0000
2.0710, -0.5590, 0.0981, -10.0224, 0.0035, 0.0003, -0.0097, -0.0944, -0.0021, -0.0918, -0.0023, 0.0017, -0.0050, 993, 50859, 0.0000, 0.0000, 0.0000, 0.0000
2.0910, -0.5590, 0.0981, -10.0224, 0.0035, 0.0003, -0.0097, -0.0943, -0.0021, -0.0919, -0.0024, 0.0017, -0.0048, 994, 50859, 0.0000, 0.0000, 0.0000, 0.0000
2.1110, -0.5590, 0.0981, -10.0224, 0.0035, 0.0003, -0.0097, -0.0944, -0.0022, -0.0917, -0.0023, 0.0018, -0.0048, 995, 50859, 0.0000, 0.0000, 0.0000, 0.0000
2.1310, -0.5590, 0.0981, -10.0224, 0.0035, 0.0003, -0.0097, -0.0943, -0.0021, -0.0919, -0.0023, 0.0017, -0.0042, 996, 50859, 0.0000, 0.0000, 0.0000, 0.0000
2.1510, -0.5590, 0.0981, -10.0224, 0.0035, 0.0003, -0.0097, -0.0944, -0.0021, -0.0916, -0.0025, 0.0014, -0.0040, 997, 50859, 0.0000, 0.0000, 0.0000, 0.0000
2.1710, -0.5590, 0.0981, -10.0224, 0.0035, 0.0003, -0.0097, -0.0943, -0.0021, -0.0919, -0.0022, 0.0018, -0.0047, 998, 50859, 0.0000, 0.0000, 0.0000, 0.0000
2.1910, -0.5590, 0.0981, -10.0224, 0.0035, 0.0003, -0.0097, -0.0944, -0.0021, -0.0918, -0.0023, 0.0016, -0.0048, 999, 50859, 0.0000, 0.0000, 0.0000, 0.0000
2.2210, -0.5590, 0.0981, -10.0224, 0.0035, 0.0003, -0.0097, -0.0944, -0.0021, -0.0917, -0.0023, 0.0017, -0.0047, 1000, 50859, 0.0000, 0.0000, 0.0000, 0.0000
2.2310, -0.5590, 0.0981, -10.0224, 0.0035, 0.0003, -0.0097, -0.0944, -0.0021, -0.0918, -0.0022, 0.0019, -0.0041, 1001, 50859, 0.0000, 0.0000, 0.0000, 0.0000
2.2510, -0.5590, 0.0981, -10.0224, 0.0035, 0.0003, -0.0097, -0.0944, -0.0021, -0.0917, -0.0025, 0.0014, -0.0044, 1002, 50859, 0.0000, 0.0000, 0.0000, 0.0000
2.2710, -0.5590, 0.0981, -10.0224, 0.0035, 0.0003, -0.0097, -0.0943, -0.0021, -0.0920, -0.0023, 0.0020, -0.0049, 1003, 50859, 0.0000, 0.0000, 0.0000, 0.0000
2.2910, -0.5590, 0.0981, -10.0224, 0.0035, 0.0003, -0.0097, -0.0944, -0.0021, -0.0917, -0.0023, 0.0014, -0.0048, 1004, 50859, 0.0000, 0.0000, 0.0000, 0.0000
2.3110, -0.5590, 0.0981, -10.0224, 0.0035, 0.0003, -0.0097, -0.0944, -0.0021, -0.0918, -0.0024, 0.0016, -0.0045, 1005, 50859, 0.0000, 0.0000, 0.0000, 0.0000
2.3310, -0.5590, 0.0981, -10.0224, 0.0035, 0.0003, -0.0097, -0.0943, -0.0021, -0.0918, -0.0023, 0.0019, -0.0046, 1006, 50859, 0.0000, 0.0000, 0.0000, 0.0000
2.3510, -0.5590, 0.0981, -10.0224, 0.0035, 0.0003, -0.0097, -0.0943, -0.0021, -0.0918, -0.0023, 0.0015, -0.0046, 1007, 50859, 0.0000, 0.0000, 0.0000, 0.0000
2.3710, -0.5590, 0.0981, -10.0224, 0.0035, 0.0003, -0.0097, -0.0943, -0.0021, -0.0919, -0.0024, 0.0019, -0.0049, 1008, 50859, 0.0000, 0.0000, 0.0000, 0.0000
2.3910, -0.5590, 0.0981, -10.0224, 0.0035, 0.0003, -0.0097, -0.0944, -0.0021, -0.0917, -0.0023, 0.0017, -0.0042, 1009, 50859, 0.0000, 0.0000, 0.0000, 0.0000
2.4110, -0.5590, 0.0981, -10.0224, 0.0035, 0.0003, -0.0097, -0.0943, -0.0021, -0.0918, -0.0025, 0.0018, -0.0040, 1010, 50859, 0.0000, 0.0000, 0.0000, 0.0000
2.4310, -0.5590, 0.0981, -10.0224, 0.0035, 0.0003, -0.0097, -0.0944, -0.0021, -0.0918, -0.0022, 0.0019, -0.0049, 1011, 50859, 0.0000, 0.0000, 0.0000, 0.0000
2.4510, -0.5590, 0.0981, -10.0224, 0.0035, 0.0003, -0.0097, -0.0943, -0.0021, -0.0919, -0.0024, 0.0016, -0.0046, 1012, 50859, 0.0000, 0.0000, 0.0000, 0.0000
2.4810, -0.5590, 0.0981, -10.0224, 0.0035, 0.0003, -0.0097, -0.0943, -0.0021, -0.0917, -0.0024, 0.0015, -0.0043, 1013, 50859, 0.0000, 0.0000, 0.0000, 0.0000
2.4910, -0.5590, 0.0981, -10.0224, 0.0035, 0.0003, -0.0097, -0.0944, -0.0021, -0.0917, -0.0023, 0.0019, -0.0040, 1014, 50859, 0.0000, 0.0000, 0.0000, 0.0000
2.5110, -0.5590, 0.0981, -10.0224, 0.0035, 0.0003, -0.0097, -0.0943, -0.0021, -0.0918, -0.0023, 0.0018, -0.0049, 1015, 50859, 0.0000, 0.0000, 0.0000, 0.0000
2.5310, -0.5590, 0.0981, -10.0224, 0.0035, 0.0003, -0.0097, -0.0944, -0.0021, -0.0918, -0.0023, 0.0017, -0.0049, 1016, 50859, 0.0000, 0.0000, 0.0000, 0.0000
2.5510, -0.5590, 0.0981, -10.0224, 0.0035, 0.0003, -0.0097, -0.0944, -0.0021, -0.0919, -0.0023, 0.0017, -0.0045, 1017, 50859, 0.0000, 0.0000, 0.0000, 0.0000
2.5810, -0.5590, 0.0981, -10.0224, 0.0035, 0.0003, -0.0097, -0.0943, -0.0021, -0.0916, -0.0025, 0.0018, -0.0041, 1018, 50859, 0.0000, 0.0000, 0.0000, 0.0000
2.5910, -0.5590, 0.0981, -10.0224, 0.0035, 0.0003, -0.0097, -0.0944, -0.0021, -0.0918, -0.0024, 0.0020, -0.0047, 1019, 50859, 0.0000, 0.0000, 0.0000, 0.0000
2.6110, -0.5590, 0.0981, -10.0224, 0.0035, 0.0003, -0.0097, -0.0943, -0.0021, -0.0918, -0.0024, 0.0015, -0.0048, 1020, 50859, 0.0000, 0.0000, 0.0000, 0.0000
2.6310, -0.5590, 0.0981, -10.0224, 0.0035, 0.0003, -0.0097, -0.0943, -0.0021, -0.0918, -0.0024, 0.0015, -0.0045, 1021, 50859, 0.0000, 0.0000, 0.0000, 0.0000
2.6510, -0.5590, 0.0981, -10.0224, 0.0035, 0.0003, -0.0097, -0.0942, -0.0021, -0.0917, -0.0024, 0.0018, -0.0039, 1022, 50859, 0.0000, 0.0000, 0.0000, 0.0000
2.6710, -0.5590, 0.0981, -10.0224, 0.0035, 0.0003, -0.0097, -0.0943, -0.0021, -0.0917, -0.0023, 0.0018, -0.0041, 1023, 50859, 0.0000, 0.0000, 0.0000, 0.0000
2.7010, -0.5590, 0.0981, -10.0224, 0.0035, 0.0003, -0.0097, -0.0944, -0.0022, -0.0918, -0.0023, 0.0021, -0.0049, 1024, 50859, 0.0000, 0.0000, 0.0000, 0.0000
2.7110, -0.5590, 0.0981, -10.0224, 0.0035, 0.0003, -0.0097, -0.0943, -0.0021, -0.0918, -0.0023, 0.0018, -0.0046, 1025, 50859, 0.0000, 0.0000, 0.0000, 0.0000
2.7310, -0.5590, 0.0981, -10.0224, 0.0035, 0.0003, -0.0097, -0.0943, -0.0022, -0.0918, -0.0022, 0.0019, -0.0046, 1026, 50859, 0.0000, 0.0000, 0.0000, 0.0000
2.7510, -0.5590, 0.0981, -10.0224, 0.0035, 0.0003, -0.0097, -0.0943, -0.0021, -0.0918, -0.0023, 0.0020, -0.0045, 1027, 50859, 0.0000, 0.0000, 0.0000, 0.0000
2.7810, -0.5590, 0.0981, -10.0224, 0.0035, 0.0003, -0.0097, -0.0943, -0.0021, -0.0918, -0.0024, 0.0018, -0.0042, 1028, 50859, 0.0000, 0.0000, 0.0000, 0.0000
2.7910, -0.5590, 0.0981, -10.0224, 0.0035, 0.0003, -0.0097, -0.0943, -0.0022, -0.0918, -0.0022, 0.0017, -0.0047, 1029, 50859, 0.0000, 0.0000, 0.0000, 0.0000
2.8110, -0.5590, 0.0981, -10.0224, 0.0035, 0.0003, -0.0097, -0.0943, -0.0021, -0.0917, -0.0023, 0.0016, -0.0042, 1030, 50859, 0.0000, 0.0000, 0.0000, 0.0000
2.8310, -0.5590, 0.0981, -10.0224, 0.0035, 0.0003, -0.0097, -0.0942, -0.0022, -0.0917, -0.0022, 0.0019, -0.0039, 1031, 50859, 0.0000, 0.0000, 0.0000, 0.0000
2.8510, -0.5590, 0.0981, -10.0224, 0.0035, 0.0003, -0.0097, -0.0943, -0.0021, -0.0918, -0.0023, 0.0020, -0.0051, 1032, 50859, 0.0000, 0.0000, 0.0000, 0.0000
2.8710, -0.5590, 0.0981, -10.0224, 0.0035, 0.0003, -0.0097, -0.0943, -0.0021, -0.0918, -0.0024, 0.0019, -0.0044, 1033, 50859, 0.0000, 0.0000, 0.0000, 0.0000
2.8910, -0.5590, 0.0981, -10.0224, 0.0035, 0.0003, -0.0097, -0.0943, -0.0021, -0.0920, -0.0022, 0.0021, -0.0054, 1034, 50859, 0.0000, 0.0000, 0.0000, 0.0000
2.9110, -0.5590, 0.0981, -10.0224, 0.0035, 0.0003, -0.0097, -0.0943, -0.0021, -0.0924, -0.0023, 0.0025, -0.0048, 1035, 50859, 0.0000, 0.0000, 0.0000, 0.0000
2.9420, -0.5590, 0.0981, -10.0224, 0.0035, 0.0003, -0.0097, -0.0944, -0.0022, -0.0931, -0.0021, 0.0042, -0.0065, 1036, 50859, 0.0000, 0.0000, 0.0000, 0.0000
2.9510, -0.5590, 0.0981, -10.0224, 0.0035, 0.0003, -0.0097, -0.0947, -0.0024, -0.0940, -0.0011, 0.0066, -0.0078, 1037, 50859, 0.0000, 0.0000, 0.0000, 0.0000
2.9820, -0.5590, 0.0981, -10.0224, 0.0035, 0.0003, -0.0097, -0.0947, -0.0027, -0.0954, -0.0011, 0.0074, -0.0091, 1038, 50859, 0.0000, 0.0000, 0.0000, 0.0000
2.9910, -0.5590, 0.0981, -10.0224, 0.0035, 0.0003, -0.0097, -0.0945, -0.0027, -0.0978, -0.0007, 0.0084, -0.0089, 1039, 50859, 0.0000, 0.0000, 0.0000, 0.0000
3.0110, -0.5590, 0.0981, -10.0224, 0.0035, 0.0003, -0.0097, -0.0948, -0.0029, -0.1008, -0.0008, 0.0097, -0.0084, 1040, 50859, 0.0000, 0.0000, 0.0000, 0.0000
3.0310, -0.5590, 0.0981, -10.0224, 0.0035, 0.0003, -0.0097, -0.0945, -0.0031, -0.1046, -0.0005, 0.0120, -0.0100, 1041, 50859, 0.0000, 0.0000, 0.0000, 0.0000
3.0510, -0.5590, 0.0981, -10.0224, 0.0035, 0.0003, -0.0097, -0.0946, -0.0033, -0.1088, -0.0006, 0.0143, -0.0101, 1042, 50859, 0.0000, 0.0000, 0.0000, 0.0000
3.0710, -0.5590, 0.0981, -10.0224, 0.0035, 0.0003, -0.0097, -0.0945, -0.0036, -0.1135, -0.0001, 0.0175, -0.0089, 1043, 50859, 0.0000, 0.0000, 0.0000, 0.0000
3.0910, -0.5590, 0.0981, -10.0224, 0.0035, 0.0003, -0.0097, -0.0943, -0.0040, -0.1182, -0.0003, 0.0205, -0.0099, 1044, 50859, 0.0000, 0.0000, 0.0000, 0.0000
3.1110, -0.5590, 0.0981, -10.0224, 0.0035, 0.0003, -0.0097, -0.0943, -0.0044, -0.1232, 0.0004, 0.0219, -0.0106, 1045, 50859, 0.0000, 0.0000, 0.0000, 0.0000
3.1310, -0.5590, 0.0981, -10.0224, 0.0035, 0.0003, -0.0097, -0.0941, -0.0051, -0.1286, 0.0001, 0.0235, -0.0110, 1046, 50859, 0.0000, 0.0000, 0.0000, 0.0000
3.1510, -0.5590, 0.0981, -10.0224, 0.0035, 0.0003, -0.0097, -0.0942, -0.0055, -0.1336, 0.0006, 0.0240, -0.0104, 1047, 50859, 0.0000, 0.0000, 0.0000, 0.0000
3.1820, -0.5590, 0.0981, -10.0224, 0.0035, 0.0003, -0.0097, -0.0942, -0.0062, -0.1389, 0.0004, 0.0252, -0.0102, 1048, 50859, 0.0000, 0.0000, 0.0000, 0.0000
3.1910, -0.5590, 0.0981, -10.0224, 0.0035, 0.0003, -0.0097, -0.0943, -0.0069, -0.1438, 0.0003, 0.0276, -0.0094, 1049, 50859, 0.0000, 0.0000, 0.0000, 0.0000
3.2110, -0.5590, 0.0981, -10.0224, 0.0035, 0.0003, -0.0097, -0.0948, -0.0074, -0.1486, 0.0008, 0.0291, -0.0076, 1050, 50859, 0.0000, 0.0000, 0.0000, 0.0000
3.2310, -0.5590, 0.0981, -10.0224, 0.0035, 0.0003, -0.0097, -0.0951, -0.0083, -0.1532, 0.0008, 0.0313, -0.0062, 1051, 50859, 0.0000, 0.0000, 0.0000, 0.0000
3.2510, -0.5590, 0.0981, -10.0224, 0.0035, 0.0003, -0.0097, -0.0956, -0.0092, -0.1573, 0.0006, 0.0322, -0.0048, 1052, 50859, 0.0000, 0.0000, 0.0000, 0.0000
3.2810, -0.5590, 0.0981, -10.0224, 0.0035, 0.0003, -0.0097, -0.0961, -0.0099, -0.1616, 0.0019, 0.0326, -0.0038, 1053, 50859, 0.0000, 0.0000, 0.0000, 0.0000
3.2910, -0.5590, 0.0981, -10.0224, 0.0035, 0.0003, -0.0097, -0.0966, -0.0109, -0.1653, 0.0012, 0.0319, -0.0031, 1054, 50859, 0.0000, 0.0000, 0.0000, 0.0000
3.3110, -0.5590, 0.0981, -10.0224, 0.0035, 0.0003, -0.0097, -0.0975, -0.0118, -0.1691, 0.0023, 0.0296, -0.0020, 1055, 50859, 0.0000, 0.0000, 0.0000, 0.0000
3.3420, -0.5590, 0.0981, -10.0224, 0.0035, 0.0003, -0.0097, -0.0982, -0.0127, -0.1723, 0.0013, 0.0287, 0.0003, 1056, 50859, 0.0000, 0.0000, 0.0000, 0.0000
3.3610, -0.5590, 0.0981, -10.0224, 0.0035, 0.0003, -0.0097, -0.0990, -0.0137, -0.1751, 0.0019, 0.0270, 0.0030, 1057, 50859, 0.0000, 0.0000, 0.0000, 0.0000
3.3710, -0.5590, 0.0981, -10.0224, 0.0035, 0.0003, -0.0097, -0.0999, -0.0145, -0.1778, 0.0016, 0.0246, 0.0058, 1058, 50859, 0.0000, 0.0000, 0.0000, 0.0000
3.4010, -0.5590, 0.0981, -10.0224, 0.0035, 0.0003, -0.0097, -0.1010, -0.0155, -0.1797, 0.0026, 0.0232, 0.0093, 1059, 50859, 0.0000, 0.0000, 0.0000, 0.0000
3.4110, -0.5590, 0.0981, -10.0224, 0.0035, 0.0003, -0.0097, -0.1021, -0.0164, -0.1816, 0.0022, 0.0214, 0.0122, 1060, 50859, 0.0000, 0.0000, 0.0000, 0.0000
3.4310, -0.5590, 0.0981, -10.0224, 0.0035, 0.0003, -0.0097, -0.1034, -0.0172, -0.1829, 0.0027, 0.0190, 0.0156, 1061, 50859, 0.0000, 0.0000, 0.0000, 0.0000
3.4620, -0.5590, 0.0981, -10.0224, 0.0035, 0.0003, -0.0097, -0.1045, -0.0182, -0.1841, 0.0023, 0.0164, 0.0186, 1062, 50859, 0.0000, 0.0000, 0.0000, 0.0000
3.4710, -0.5590, 0.0981, -10.0224, 0.0035, 0.0003, -0.0097, -0.1055, -0.0189, -0.1850, 0.0025, 0.0144, 0.0203, 1063, 50859, 0.0000, 0.0000, 0.0000, 0.0000
3.4910, -0.5590, 0.0981, -10.0224, 0.0035, 0.0003, -0.0097, -0.1069, -0.0197, -0.1859, 0.0031, 0.0121, 0.0221, 1064, 50859, 0.0000, 0.0000, 0.0000, 0.0000
3.5110, -0.5590, 0.0981, -10.0224, 0.0035, 0.0003, -0.0097, -0.1081, -0.0204, -0.1867, 0.0028, 0.0100, 0.0216, 1065, 50859, 0.0000, 0.0000, 0.0000, 0.0000
3.5310, -0.5590, 0.0981, -10.0224, 0.0035, 0.0003, -0.0097, -0.1094, -0.0211, -0.1875, 0.0034, 0.0069, 0.0222, 1066, 50859, 0.0000, 0.0000, 0.0000, 0.0000
3.5510, -0.5590, 0.0981, -10.0224, 0.0035, 0.0003, -0.0097, -0.1104, -0.0215, -0.1881, 0.0033, 0.0052, 0.0224, 1067, 50859, 0.0000, 0.0000, 0.0000, 0.0000
3.5710, -0.5590, 0.0981, -10.0224, 0.0035, 0.0003, -0.0097, -0.1117, -0.0222, -0.1887, 0.0039, 0.0035, 0.0227, 1068, 50859, 0.0000, 0.0000, 0.0000, 0.0000
3.6010, -0.5590, 0.0981, -10.0224, 0.0035, 0.0003, -0.0097, -0.1131, -0.0226, -0.1894, 0.0038, 0.0019, 0.0236, 1069, 50859, 0.0000, 0.0000, 0.0000, 0.0000
3.6110, -0.5590, 0.0981, -10.0224, 0.0035, 0.0003, -0.0097, -0.1142, -0.0230, -0.1901, 0.0040, 0.0010, 0.0236, 1070, 50859, 0.0000, 0.0000, 0.0000, 0.0000
3.6420, -0.5590, 0.0981, -10.0224, 0.0035, 0.0003, -0.0097, -0.1157, -0.0234, -0.1907, 0.0041, 0.0001, 0.0234, 1071, 50859, 0.0000, 0.0000, 0.0000, 0.0000
3.6510, -0.5590, 0.0981, -10.0224, 0.0035, 0.0003, -0.0097, -0.1167, -0.0237, -0.1914, 0.0040, -0.0003, 0.0231, 1072, 50859, 0.0000, 0.0000, 0.0000, 0.0000
3.6810, -0.5590, 0.0981, -10.0224, 0.0035, 0.0003, -0.0097, -0.1180, -0.0239, -0.1920, 0.0043, -0.0016, 0.0230, 1073, 50859, 0.0000, 0.0000, 0.0000, 0.0000
3.7010, -0.5590, 0.0981, -10.0224, 0.0035, 0.0003, -0.0097, -0.1192, -0.0238, -0.1927, 0.0045, -0.0026, 0.0235, 1074, 50859, 0.0000, 0.0000, 0.0000, 0.0000
3.7220, -0.5590, 0.0981, -10.0224, 0.0035, 0.0003, -0.0097, -0.1203, -0.0239, -0.1934, 0.0052, -0.0044, 0.0239, 1075, 50859, 0.0000, 0.0000, 0.0000, 0.0000
3.7420, -0.5590, 0.0981, -10.0224, 0.0035, 0.0003, -0.0097, -0.1215, -0.0238, -0.1941, 0.0056, -0.0068, 0.0215, 1076, 50859, 0.0000, 0.0000, 0.0000, 0.0000
3.7530, -0.5590, 0.0981, -10.0224, 0.0035, 0.0003, -0.0097, -0.1223, -0.0237, -0.1949, 0.0058, -0.0073, 0.0200, 1077, 50859, 0.0000, 0.0000, 0.0000, 0.0000
3.7730, -0.5590, 0.0981, -10.0224, 0.0035, 0.0003, -0.0097, -0.1235, -0.0236, -0.1956, 0.0056, -0.0090, 0.0196, 1078, 50859, 0.0000, 0.0000, 0.0000, 0.0000
3.7930, -0.5590, 0.0981, -10.0224, 0.0035, 0.0003, -0.0097, -0.1241, -0.0232, -0.1962, 0.0064, -0.0097, 0.0182, 1079, 50859, 0.0000, 0.0000, 0.0000, 0.0000
3.8130, -0.5590, 0.0981, -10.0224, 0.0035, 0.0003, -0.0097, -0.1252, -0.0231, -0.1970, 0.0060, -0.0111, 0.0170, 1080, 50859, 0.0000, 0.0000, 0.0000, 0.0000
3.8330, -0.5590, 0.0981, -10.0224, 0.0035, 0.0003, -0.0097, -0.1259, -0.0229, -0.1977, 0.0064, -0.0119, 0.0162, 1081, 50859, 0.0000, 0.0000, 0.0000, 0.0000
3.8530, -0.5590, 0.0981, -10.0224, 0.0035, 0.0003, -0.0097, -0.1264, -0.0224, -0.1982, 0.0062, -0.0122, 0.0149, 1082, 50859, 0.0000, 0.0000, 0.0000, 0.0000
3.8730, -0.5590, 0.0981, -10.0224, 0.0035, 0.0003, -0.0097, -0.1273, -0.0221, -0.1988, 0.0064, -0.0121, 0.0141, 1083, 50859, 0.0000, 0.0000, 0.0000, 0.0000
3.8930, -0.5590, 0.0981, -10.0224, 0.0035, 0.0003, -0.0097, -0.1279, -0.0217, -0.1994, 0.0057, -0.0120, 0.0130, 1084, 50859, 0.0000, 0.0000, 0.0000, 0.0000
3.9150, -0.5590, 0.0981, -10.0224, 0.0035, 0.0003, -0.0097, -0.1285, -0.0211, -0.1998, 0.0062, -0.0119, 0.0127, 1085, 50859, 0.0000, 0.0000, 0.0000, 0.0000
3.9350, -0.5590, 0.0981, -10.0224, 0.0035, 0.0003, -0.0097, -0.1290, -0.0208, -0.2001, 0.0061, -0.0106, 0.0129, 1086, 50859, 0.0000, 0.0000, 0.0000, 0.0000
3.9550, -0.5590, 0.0981, -10.0224, 0.0035, 0.0003, -0.0097, -0.1293, -0.0203, -0.2004, 0.0060, -0.0104, 0.0112, 1087, 50859, 0.0000, 0.0000, 0.0000, 0.0000
3.9740, -0.5590, 0.0981, -10.0224, 0.0035, 0.0003, -0.0097, -0.1297, -0.0198, -0.2008, 0.0062, -0.0102, 0.0124, 1088, 50859, 0.0000, 0.0000, 0.0000, 0.0000
3.9950, -0.5590, 0.0981, -10.0224, 0.0035, 0.0003, -0.0097, -0.1300, -0.0194, -0.2011, 0.0055, -0.0108, 0.0124, 1089, 50859, 0.0000, 0.0000, 0.0000, 0.0000
4.0150, -0.5590, 0.0981, -10.0224, 0.0035, 0.0003, -0.0097, -0.1304, -0.0189, -0.2014, 0.0064, -0.0117, 0.0123, 1090, 50859, 0.0000, 0.0000, 0.0000, 0.0000
4.0350, -0.5590, 0.0981, -10.0224, 0.0035, 0.0003, -0.0097, -0.1304, -0.0182, -0.2016, 0.0054, -0.0119, 0.0136, 1091, 50859, 0.0000, 0.0000, 0.0000, 0.0000
4.0550, -0.5590, 0.0981, -10.0224, 0.0035, 0.0003, -0.0097, -0.1306, -0.0176, -0.2017, 0.0058, -0.0111, 0.0146, 1092, 50859, 0.0000, 0.0000, 0.0000, 0.0000
4.0750, -0.5590, 0.0981, -10.0224, 0.0035, 0.0003, -0.0097, -0.1308, -0.0170, -0.2018, 0.0056, -0.0107, 0.0159, 1093, 50859, 0.0000, 0.0000, 0.0000, 0.0000
4.0950, -0.5590, 0.0981, -10.0224, 0.0035, 0.0003, -0.0097, -0.1308, -0.0163, -0.2018, 0.0050, -0.0108, 0.0160, 1094, 50859, 0.0000, 0.0000, 0.0000, 0.0000
4.1150, -0.5590, 0.0981, -10.0224, 0.0035, 0.0003, -0.0097, -0.1311, -0.0157, -0.2018, 0.0054, -0.0101, 0.0168, 1095, 50859, 0.0000, 0.0000, 0.0000, 0.0000
4.1350, -0.5590, 0.0981, -10.0224, 0.0035, 0.0003, -0.0097, -0.1309, -0.0150, -0.2016, 0.0041, -0.0092, 0.0174, 1096, 50859, 0.0000, 0.0000, 0.0000, 0.0000
4.1550, -0.5590, 0.0981, -10.0224, 0.0035, 0.0003, -0.0097, -0.1310, -0.0143, -0.2014, 0.0054, -0.0087, 0.0170, 1097, 50859, 0.0000, 0.0000, 0.0000, 0.0000
4.1750, -0.5590, 0.0981, -10.0224, 0.0035, 0.0003, -0.0097, -0.1308, -0.0138, -0.2011, 0.0045, -0.0082, 0.0164, 1098, 50859, 0.0000, 0.0000, 0.0000, 0.0000
4.1950, -0.5590, 0.0981, -10.0224, 0.0035, 0.0003, -0.0097, -0.1307, -0.0130, -0.2007, 0.0052, -0.0077, 0.0169, 1099, 50859, 0.0000, 0.0000, 0.0000, 0.0000
4.2150, -0.5590, 0.0981, -10.0224, 0.0035, 0.0003, -0.0097, -0.1305, -0.0120, -0.2004, 0.0055, -0.0078, 0.0168, 1100, 50859, 0.0000, 0.0000, 0.0000, 0.0000
4.2350, -0.5590, 0.0981, -10.0224, 0.0035, 0.0003, -0.0097, -0.1302, -0.0114, -0.1997, 0.0045, -0.0072, 0.0166, 1101, 50859, 0.0000, 0.0000, 0.0000, 0.0000
4.2550, -0.5590, 0.0981, -10.0224, 0.0035, 0.0003, -0.0097, -0.1300, -0.0103, -0.1989, 0.0054, -0.0069, 0.0171, 1102, 50859, 0.0000, 0.0000, 0.0000, 0.0000
4.2750, -0.5590, 0.0981, -10.0224, 0.0035, 0.0003, -0.0097, -0.1295, -0.0095, -0.1982, 0.0046, -0.0068, 0.0173, 1103, 50859, 0.0000, 0.0000, 0.0000, 0.0000
4.2950, -0.5590, 0.0981, -10.0224, 0.0035, 0.0003, -0.0097, -0.1292, -0.0085, -0.1972, 0.0047, -0.0074, 0.0165, 1104, 50859, 0.0000, 0.0000, 0.0000, 0.0000
4.3150, -0.5590, 0.0981, -10.0224, 0.0035, 0.0003, -0.0097, -0.1289, -0.0077, -0.1964, 0.0050, -0.0069, 0.0154, 1105, 50859, 0.0000, 0.0000, 0.0000, 0.0000
4.3350, -0.5590, 0.0981, -10.0224, 0.0035, 0.0003, -0.0097, -0.1284, -0.0067, -0.1954, 0.0053, -0.0055, 0.0131, 1106, 50859, 0.0000, 0.0000, 0.0000, 0.0000
4.3550, -0.5590, 0.0981, -10.0224, 0.0035, 0.0003, -0.0097, -0.1280, -0.0058, -0.1945, 0.0053, -0.0044, 0.0116, 1107, 50859, 0.0000, 0.0000, 0.0000, 0.0000
4.3750, -0.5590, 0.0981, -10.0224, 0.0035, 0.0003, -0.0097, -0.1274, -0.0048, -0.1936, 0.0054, -0.0027, 0.0104, 1108, 50859, 0.0000, 0.0000, 0.0000, 0.0000
4.3950, -0.5590, 0.0981, -10.0224, 0.0035, 0.0003, -0.0097, -0.1270, -0.0037, -0.1928, 0.0056, -0.0019, 0.0090, 1109, 50859, 0.0000, 0.0000, 0.0000, 0.0000
4.4150, -0.5590, 0.0981, -10.0224, 0.0035, 0.0003, -0.0097, -0.1264, -0.0027, -0.1922, 0.0058, -0.0013, 0.0091, 1110, 50859, 0.0000, 0.0000, 0.0000, 0.0000
4.4350, -0.5590, 0.0981, -10.0224, 0.0035, 0.0003, -0.0097, -0.1258, -0.0016, -0.1916, 0.0059, -0.0008, 0.0084, 1111, 50859, 0.0000, 0.0000, 0.0000, 0.0000
4.4550, -0.5590, 0.0981, -10.0224, 0.0035, 0.0003, -0.0097, -0.1255, -0.0007, -0.1911, 0.0060, 0.0006, 0.0063, 1112, 50859, 0.0000, 0.0000, 0.0000, 0.0000
4.4750, -0.5590, 0.0981, -10.0224, 0.0035, 0.0003, -0.0097, -0.1249, 0.0004, -0.1908, 0.0066, 0.0026, 0.0043, 1113, 50859, 0.0000, 0.0000, 0.0000, 0.0000
4.4950, -0.5590, 0.0981, -10.0224, 0.0035, 0.0003, -0.0097, -0.1245, 0.0014, -0.1902, 0.0069, 0.0034, 0.0045, 1114, 50859, 0.0000, 0.0000, 0.0000, 0.0000
4.5150, -0.5590, 0.0981, -10.0224, 0.0035, 0.0003, -0.0097, -0.1240, 0.0025, -0.1901, 0.0078, 0.0041, 0.0036, 1115, 50859, 0.0000, 0.0000, 0.0000, 0.0000
4.5350, -0.5590, 0.0981, -10.0224, 0.0035, 0.0003, -0.0097, -0.1236, 0.0036, -0.1898, 0.0070, 0.0046, 0.0026, 1116, 50859, 0.0000, 0.0000, 0.0000, 0.0000
4.5550, -0.5590, 0.0981, -10.0224, 0.0035, 0.0003, -0.0097, -0.1229, 0.0045, -0.1895, 0.0070, 0.0046, 0.0011, 1117, 50859, 0.0000, 0.0000, 0.0000, 0.0000
4.5750, -0.5590, 0.0981, -10.0224, 0.0035, 0.0003, -0.0097, -0.1226, 0.0055, -0.1897, 0.0077, 0.0042, 0.0008, 1118, 50859, 0.0000, 0.0000, 0.0000, 0.0000
4.5950, -0.5590, 0.0981, -10.0224, 0.0035, 0.0003, -0.0097, -0.1221, 0.0064, -0.1895, 0.0068, 0.0042, -0.0002, 1119, 50859, 0.0000, 0.0000, 0.0000, 0.0000
4.6150, -0.5590, 0.0981, -10.0224, 0.0035, 0.0003, -0.0097, -0.1217, 0.0074, -0.1895, 0.0080, 0.0049, 0.0007, 1120, 50859, 0.0000, 0.0000, 0.0000, 0.0000
4.6350, -0.5590, 0.0981, -10.0224, 0.0035, 0.0003, -0.0097, -0.1213, 0.0085, -0.1894, 0.0076, 0.0058, 0.0001, 1121, 50859, 0.0000, 0.0000, 0.0000, 0.0000
4.6550, -0.5590, 0.0981, -10.0224, 0.0035, 0.0003, -0.0097, -0.1209, 0.0094, -0.1891, 0.0077, 0.0064, 0.0011, 1122, 50859, 0.0000, 0.0000, 0.0000, 0.0000
4.6750, -0.5590, 0.0981, -10.0224, 0.0035, 0.0003, -0.0097, -0.1205, 0.0104, -0.1890, 0.0081, 0.0068, 0.0015, 1123, 50859, 0.0000, 0.0000, 0.0000, 0.0000
4.6950, -0.5590, 0.0981, -10.0224, 0.0035, 0.0003, -0.0097, -0.1201, 0.0112, -0.1888, 0.0082, 0.0075, 0.0008, 1124, 50859, 0.0000, 0.0000, 0.0000, 0.0000
4.7150, -0.5590, 0.0981, -10.0224, 0.0035, 0.0003, -0.0097, -0.1197, 0.0119, -0.1886, 0.0082, 0.0071, 0.0012, 1125, 50859, 0.0000, 0.0000, 0.0000, 0.0000
4.7350, -0.5590, 0.0981, -10.0224, 0.0035, 0.0003, -0.0097, -0.1196, 0.0127, -0.1884, 0.0085, 0.0068, -0.0001, 1126, 50859, 0.0000, 0.0000, 0.0000, 0.0000
4.7550, -0.5590, 0.0981, -10.0224, 0.0035, 0.0003, -0.0097, -0.1192, 0.0134, -0.1885, 0.0084, 0.0080, -0.0022, 1127, 50859, 0.0000, 0.0000, 0.0000, 0.0000
4.7750, -0.5590, 0.0981, -10.0224, 0.0035, 0.0003, -0.0097, -0.1190, 0.0143, -0.1884, 0.0090, 0.0084, -0.0030, 1128, 50859, 0.0000, 0.0000, 0.0000, 0.0000
4.7950, -0.5590, 0.0981, -10.0224, 0.0035, 0.0003, -0.0097, -0.1186, 0.0150, -0.1886, 0.0094, 0.0093, -0.0033, 1129, 50859, 0.0000, 0.0000, 0.0000, 0.0000
4.8150, -0.5590, 0.0981, -10.0224, 0.0035, 0.0003, -0.0097, -0.1184, 0.0158, -0.1885, 0.0086, 0.0104, -0.0030, 1130, 50859, 0.0000, 0.0000, 0.0000, 0.0000
4.8350, -0.5590, 0.0981, -10.0224, 0.0035, 0.0003, -0.0097, -0.1184, 0.0164, -0.1885, 0.0092, 0.0099, -0.0025, 1131, 50859, 0.0000, 0.0000, 0.0000, 0.0000
4.8550, -0.5590, 0.0981, -10.0224, 0.0035, 0.0003, -0.0097, -0.1180, 0.0171, -0.1887, 0.0090, 0.0100, -0.0024, 1132, 50859, 0.0000, 0.0000, 0.0000, 0.0000
4.8740, -0.5590, 0.0981, -10.0224, 0.0035, 0.0003, -0.0097, -0.1181, 0.0176, -0.1887, 0.0087, 0.0096, -0.0027, 1133, 50859, 0.0000, 0.0000, 0.0000, 0.0000
4.8950, -0.5590, 0.0981, -10.0224, 0.0035, 0.0003, -0.0097, -0.1178, 0.0183, -0.1889, 0.0090, 0.0091, -0.0024, 1134, 50859, 0.0000, 0.0000, 0.0000, 0.0000
4.9150, -0.5590, 0.0981, -10.0224, 0.0035, 0.0003, -0.0097, -0.1178, 0.0187, -0.1886, 0.0088, 0.0098, -0.0013, 1135, 50859, 0.0000, 0.0000, 0.0000, 0.0000
4.9350, -0.5590, 0.0981, -10.0224, 0.0035, 0.0003, -0.0097, -0.1178, 0.0193, -0.1889, 0.0094, 0.0084, -0.0032, 1136, 50859, 0.0000, 0.0000, 0.0000, 0.0000
4.9550, -0.5590, 0.0981, -10.0224, 0.0035, 0.0003, -0.0097, -0.1178, 0.0197, -0.1889, 0.0095, 0.0081, -0.0036, 1137, 50859, 0.0000, 0.0000, 0.0000, 0.0000
4.9750, -0.5590, 0.0981, -10.0224, 0.0035, 0.0003, -0.0097, -0.1180, 0.0201, -0.1889, 0.0095, 0.0088, -0.0037, 1138, 50859, 0.0000, 0.0000, 0.0000, 0.0000
4.9950, -0.5590, 0.0981, -10.0224, 0.0035, 0.0003, -0.0097, -0.1181, 0.0205, -0.1889, 0.0096, 0.0089, -0.0029, 1139, 50859, 0.0000, 0.0000, 0.0000, 0.0000
5.0150, -0.5590, 0.0981, -10.0224, 0.0035, 0.0003, -0.0097, -0.1182, 0.0208, -0.1888, 0.0095, 0.0097, -0.0030, 1140, 50859, 0.0000, 0.0000, 0.0000, 0.0000
5.0350, -0.5590, 0.0981, -10.0224, 0.0035, 0.0003, -0.0097, -0.1185, 0.0211, -0.1889, 0.0100, 0.0098, -0.0045, 1141, 50859, 0.0000, 0.0000, -0.0050, 0.0000
5.0550, -0.5590, 0.0981, -10.0224, 0.0035, 0.0003, -0.0097, -0.1188, 0.0212, -0.1890, 0.0100, 0.0099, -0.0043, 1142, 50859, 0.0000, 0.0000, -0.0117, 0.0000
5.0750, -0.5590, 0.0981, -10.0224, 0.0035, 0.0003, -0.0097, -0.1190, 0.0213, -0.1889, 0.0102, 0.0108, -0.0050, 1143, 50859, 0.0000, 0.0000, -0.0183, 0.0000
5.0950, -0.5590, 0.0981, -10.0224, 0.0035, 0.0003, -0.0097, -0.1194, 0.0214, -0.1890, 0.0102, 0.0116, -0.0052, 1144, 50859, 0.0000, 0.0000, -0.0250, 0.0000
5.1150, -0.5590, 0.0981, -10.0224, 0.0035, 0.0003, -0.0097, -0.1198, 0.0214, -0.1891, 0.0110, 0.0114, -0.0056, 1145, 50859, 0.0000, 0.0000, -0.0317, 0.0000
5.1350, -0.5590, 0.0981, -10.0224, 0.0035, 0.0003, -0.0097, -0.1201, 0.0214, -0.1892, 0.0107, 0.0113, -0.0060, 1146, 50859, 0.0000, 0.0000, -0.0383, 0.0000
5.1540, -0.5590, 0.0981, -10.0224, 0.0035, 0.0003, -0.0097, -0.1207, 0.0213, -0.1893, 0.0110, 0.0112, -0.0055, 1147, 50859, 0.0000, 0.0000, -0.0450, 0.0000
5.1740, -0.5590, 0.0981, -10.0224, 0.0035, 0.0003, -0.0097, -0.1212, 0.0213, -0.1893, 0.0115, 0.0119, -0.0034, 1148, 50859, 0.0000, 0.0000, -0.0513, 0.0000
5.1940, -0.5590, 0.0981, -10.0224, 0.0035, 0.0003, -0.0097, -0.1217, 0.0210, -0.1894, 0.0109, 0.0113, -0.0020, 1149, 50859, 0.0000, 0.0000, -0.0580, 0.0000
5.2140, -0.5590, 0.0981, -10.0224, 0.0035, 0.0003, -0.0097, -0.1223, 0.0210, -0.1897, 0.0114, 0.0101, -0.0005, 1150, 50859, 0.0000, 0.0000, -0.0647, 0.0000
5.2340, -0.5590, 0.0981, -10.0224, 0.0035, 0.0003, -0.0097, -0.1228, 0.0208, -0.1901, 0.0112, 0.0082, 0.0011, 1151, 50859, 0.0000, 0.0000, -0.0713, 0.0000
5.2540, -0.5590, 0.0981, -10.0224, 0.0035, 0.0003, -0.0097, -0.1233, 0.0206, -0.1904, 0.0108, 0.0065, 0.0018, 1152, 50859, 0.0000, 0.0000, -0.0780, 0.0000
5.2750, -0.5590, 0.0981, -10.0224, 0.0035, 0.0003, -0.0097, -0.1240, 0.0203, -0.1910, 0.0110, 0.0062, 0.0012, 1153, 50859, 0.0000, 0.0000, -0.0847, 0.0000
5.2950, -0.5590, 0.0981, -10.0224, 0.0035, 0.0003, -0.0097, -0.1247, 0.0200, -0.1916, 0.0103, 0.0052, 0.0013, 1154, 50859, 0.0000, 0.0000, -0.0917, 0.0000
5.3140, -0.5590, 0.0981, -10.0224, 0.0035, 0.0003, -0.0097, -0.1255, 0.0198, -0.1925, 0.0103, 0.0033, 0.0015, 1155, 50859, 0.0000, 0.0000, -0.0983, 0.0000
5.3340, -0.5590, 0.0981, -10.0224, 0.0035, 0.0003, -0.0097, -0.1262, 0.0195, -0.1937, 0.0102, 0.0015, 0.0008, 1156, 50859, 0.0000, 0.0000, -0.1047, 0.0000
5.3540, -0.5590, 0.0981, -10.0224, 0.0035, 0.0003, -0.0097, -0.1267, 0.0193, -0.1948, 0.0094, 0.0004, 0.0004, 1157, 50859, 0.0000, 0.0000, -0.1113, 0.0000
5.3750, -0.5590, 0.0981, -10.0224, 0.0035, 0.0003, -0.0097, -0.1274, 0.0190, -0.1961, 0.0089, -0.0009, 0.0008, 1158, 50859, 0.0000, 0.0000, -0.1180, 0.0000
5.3950, -0.5590, 0.0981, -10.0224, 0.0035, 0.0003, -0.0097, -0.1281, 0.0188, -0.1973, 0.0084, -0.0018, 0.0017, 1159, 50859, 0.0000, 0.0000, -0.1250, 0.0000
5.4150, -0.5590, 0.0981, -10.0224, 0.0035, 0.0003, -0.0097, -0.1287, 0.0185, -0.1987, 0.0080, -0.0029, 0.0006, 1160, 50859, 0.0000, 0.0000, -0.1317, 0.0000
5.4340, -0.5590, 0.0981, -10.0224, 0.0035, 0.0003, -0.0097, -0.1293, 0.0181, -0.2005, 0.0078, -0.0041, 0.0007, 1161, 50859, 0.0000, 0.0000, -0.1383, 0.0000
5.4540, -0.5590, 0.0981, -10.0224, 0.0035, 0.0003, -0.0097, -0.1299, 0.0178, -0.2020, 0.0070, -0.0044, 0.0006, 1162, 50859, 0.0000, 0.0000, -0.1447, 0.0000
5.4740, -0.5590, 0.0981, -10.0224, 0.0035, 0.0003, -0.0097, -0.1305, 0.0174, -0.2036, 0.0071, -0.0044, 0.0018, 1163, 50859, 0.0000, 0.0000, -0.1513, 0.0000
5.4940, -0.5590, 0.0981, -10.0224, 0.0035, 0.0003, -0.0097, -0.1312, 0.0171, -0.2052, 0.0066, -0.0048, 0.0032, 1164, 50859, 0.0000, 0.0000, -0.1580, 0.0000
5.5140, -0.5590, 0.0981, -10.0224, 0.0035, 0.0003, -0.0097, -0.1317, 0.0167, -0.2073, 0.0066, -0.0050, 0.0028, 1165, 50859, 0.0000, 0.0000, -0.1647, 0.0000
5.5340, -0.5590, 0.0981, -10.0224, 0.0035, 0.0003, -0.0097, -0.1323, 0.0162, -0.2092, 0.0067, -0.0055, 0.0036, 1166, 50859, 0.0000, 0.0000, -0.1713, 0.0000
5.5540, -0.5590, 0.0981, -10.0224, 0.0035, 0.0003, -0.0097, -0.1329, 0.0159, -0.2113, 0.0068, -0.0051, 0.0029, 1167, 50859, 0.0000, 0.0000, -0.1780, 0.0000
5.5740, -0.5590, 0.0981, -10.0224, 0.0035, 0.0003, -0.0097, -0.1334, 0.0153, -0.2132, 0.0064, -0.0045, 0.0037, 1168, 50859, 0.0000, 0.0000, -0.1847, 0.0000
5.5940, -0.5590, 0.0981, -10.0224, 0.0035, 0.0003, -0.0097, -0.1341, 0.0150, -0.2153, 0.0065, -0.0052, 0.0051, 1169, 50859, 0.0000, 0.0000, -0.1913, 0.0000
5.6140, -0.5590, 0.0981, -10.0224, 0.0035, 0.0003, -0.0097, -0.1342, 0.0146, -0.2177, 0.0070, -0.0057, 0.0050, 1170, 50859, 0.0000, 0.0000, -0.1980, 0.0000
5.6340, -0.5590, 0.0981, -10.0224, 0.0035, 0.0003, -0.0097, -0.1348, 0.0138, -0.2199, 0.0061, -0.0055, 0.0045, 1171, 50859, 0.0000, 0.0000, -0.2047, 0.0000
5.6540, -0.5590, 0.0981, -10.0224, 0.0035, 0.0003, -0.0097, -0.1351, 0.0134, -0.2223, 0.0067, -0.0057, 0.0050, 1172, 50859, 0.0000, 0.0000, -0.2113, 0.0000
5.6740, -0.5590, 0.0981, -10.0224, 0.0035, 0.0003, -0.0097, -0.1355, 0.0129, -0.2249, 0.0070, -0.0070, 0.0048, 1173, 50859, 0.0000, 0.0000, -0.2180, 0.0000
5.6940, -0.5590, 0.0981, -10.0224, 0.0035, 0.0003, -0.0097, -0.1360, 0.0123, -0.2274, 0.0068, -0.0072, 0.0038, 1174, 50859, 0.0000, 0.0000, -0.2247, 0.0000
5.7140, -0.5590, 0.0981, -10.0224, 0.0035, 0.0003, -0.0097, -0.1361, 0.0117, -0.2300, 0.0073, -0.0068, 0.0048, 1175, 50859, 0.0000, 0.0000, -0.2313, 0.0000
5.7340, -0.5590, 0.0981, -10.0224, 0.0035, 0.0003, -0.0097, -0.1365, 0.0111, -0.2325, 0.0068, -0.0059, 0.0047, 1176, 50859, 0.0000, 0.0000, -0.2380, 0.0000
5.7560, -0.5590, 0.0981, -10.0224, 0.0035, 0.0003, -0.0097, -0.1369, 0.0106, -0.2349, 0.0076, -0.0057, 0.0048, 1177, 50859, 0.0000, 0.0000, -0.2447, 0.0000
5.7760, -0.5590, 0.0981, -10.0224, 0.0035, 0.0003, -0.0097, -0.1371, 0.0099, -0.2374, 0.0079, -0.0063, 0.0056, 1178, 50859, 0.0000, 0.0000, -0.2520, 0.0000
5.7960, -0.5590, 0.0981, -10.0224, 0.0035, 0.0003, -0.0097, -0.1372, 0.0092, -0.2393, 0.0079, -0.0070, 0.0061, 1179, 50859, 0.0000, 0.0000, -0.2587, 0.0000
5.8160, -0.5590, 0.0981, -10.0224, 0.0035, 0.0003, -0.0097, -0.1375, 0.0086, -0.2416, 0.0086, -0.0089, 0.0058, 1180, 50859, 0.0000, 0.0000, -0.2653, 0.0000
5.8360, -0.5590, 0.0981, -10.0224, 0.0035, 0.0003, -0.0097, -0.1376, 0.0080, -0.2436, 0.0089, -0.0096, 0.0057, 1181, 50859, 0.0000, 0.0000, -0.2720, 0.0000
5.8560, -0.5590, 0.0981, -10.0224, 0.0035, 0.0003, -0.0097, -0.1376, 0.0073, -0.2460, 0.0089, -0.0093, 0.0058, 1182, 50859, 0.0000, 0.0000, -0.2787, 0.0000
5.8760, -0.5590, 0.0981, -10.0224, 0.0035, 0.0003, -0.0097, -0.1378, 0.0066, -0.2482, 0.0092, -0.0107, 0.0064, 1183, 50859, 0.0000, 0.0000, -0.2853, 0.0000
5.8960, -0.5590, 0.0981, -10.0224, 0.0035, 0.0003, -0.0097, -0.1377, 0.0061, -0.2509, 0.0098, -0.0104, 0.0073, 1184, 50859, 0.0000, 0.0000, -0.2920, 0.0000
5.9160, -0.5590, 0.0981, -10.0224, 0.0035, 0.0003, -0.0097, -0.1379, 0.0053, -0.2532, 0.0097, -0.0094, 0.0085, 1185, 50859, 0.0000, 0.0000, -0.2987, 0.0000
5.9360, -0.5590, 0.0981, -10.0224, 0.0035, 0.0003, -0.0097, -0.1378, 0.0047, -0.2558, 0.0108, -0.0097, 0.0074, 1186, 50859, 0.0000, 0.0000, -0.3053, 0.0000
5.9560, -0.5590, 0.0981, -10.0224, 0.0035, 0.0003, -0.0097, -0.1377, 0.0042, -0.2586, 0.0109, -0.0092, 0.0095, 1187, 50859, 0.0000, 0.0000, -0.3120, 0.0000
5.9760, -0.5590, 0.0981, -10.0224, 0.0035, 0.0003, -0.0097, -0.1376, 0.0035, -0.2608, 0.0109, -0.0076, 0.0116, 1188, 50859, 0.0000, 0.0000, -0.3187, 0.0000
5.9960, -0.5590, 0.0981, -10.0224, 0.0035, 0.0003, -0.0097, -0.1375, 0.0031, -0.2637, 0.0117, -0.0075, 0.0124, 1189, 50859, 0.0000, 0.0000, -0.3253, 0.0000
6.0160, -0.5590, 0.0981, -10.0224, 0.0035, 0.0003, -0.0097, -0.1374, 0.0025, -0.2663, 0.0117, -0.0075, 0.0143, 1190, 50859, 0.0000, 0.0000, -0.3320, 0.0000
6.0360, -0.5590, 0.0981, -10.0224, 0.0035, 0.0003, -0.0097, -0.1372, 0.0020, -0.2689, 0.0124, -0.0070, 0.0155, 1191, 50859, 0.0000, 0.0000, -0.3387, 0.0000
6.0560, -0.5590, 0.0981, -10.0224, 0.0035, 0.0003, -0.0097, -0.1369, 0.0015, -0.2716, 0.0126, -0.0071, 0.0160, 1192, 50859, 0.0000, 0.0000, -0.3453, 0.0000
6.0760, -0.5590, 0.0981, -10.0224, 0.0035, 0.0003, -0.0097, -0.1367, 0.0009, -0.2744, 0.0131, -0.0071, 0.0152, 1193, 50859, 0.0000, 0.0000, -0.3520, 0.0000
6.0960, -0.5590, 0.0981, -10.0224, 0.0035, 0.0003, -0.0097, -0.1363, 0.0004, -0.2771, 0.0135, -0.0064, 0.0129, 1194, 50859, 0.0000, 0.0000, -0.3587, 0.0000
6.1160, -0.5590, 0.0981, -10.0224, 0.0035, 0.0003, -0.0097, -0.1361, -0.0002, -0.2800, 0.0139, -0.0077, 0.0124, 1195, 50859, 0.0000, 0.0000, -0.3653, 0.0000
6.1360, -0.5590, 0.0981, -10.0224, 0.0035, 0.0003, -0.0097, -0.1357, -0.0005, -0.2833, 0.0149, -0.0075, 0.0117, 1196, 50859, 0.0000, 0.0000, -0.3720, 0.0000
6.1560, -0.5590, 0.0981, -10.0224, 0.0035, 0.0003, -0.0097, -0.1354, -0.0011, -0.2863, 0.0152, -0.0068, 0.0109, 1197, 50859, 0.0000, 0.0000, -0.3787, 0.0000
6.1760, -0.5590, 0.0981, -10.0224, 0.0035, 0.0003, -0.0097, -0.1351, -0.0015, -0.2895, 0.0163, -0.0070, 0.0105, 1198, 50859, 0.0000, 0.0000, -0.3853, 0.0000
6.1960, -0.5590, 0.0981, -10.0224, 0.0035, 0.0003, -0.0097, -0.1347, -0.0018, -0.2930, 0.0171, -0.0071, 0.0107, 1199, 50859, 0.0000, 0.0000, -0.3920, 0.0000
6.2160, -0.5590, 0.0981, -10.0224, 0.0035, 0.0003, -0.0097, -0.1344, -0.0023, -0.2962, 0.0172, -0.0070, 0.0107, 1200, 50859, 0.0000, 0.0000, -0.3987, 0.0000
6.2360, -0.5590, 0.0981, -10.0224, 0.0035, 0.0003, -0.0097, -0.1337, -0.0027, -0.2998, 0.0180, -0.0071, 0.0096, 1201, 50859, 0.0000, 0.0000, -0.4053, 0.0000
6.2560, -0.5590, 0.0981, -10.0224, 0.0035, 0.0003, -0.0097, -0.1334, -0.0031, -0.3032, 0.0183, -0.0067, 0.0083, 1202, 50859, 0.0000, 0.0000, -0.4120, 0.0000
6.2760, -0.5590, 0.0981, -10.0224, 0.0035, 0.0003, -0.0097, -0.1327, -0.0035, -0.3069, 0.0188, -0.0063, 0.0081, 1203, 50859, 0.0000, 0.0000, -0.4187, 0.0000
6.2960, -0.5590, 0.0981, -10.0224, 0.0035, 0.0003, -0.0097, -0.1321, -0.0040, -0.3103, 0.0185, -0.0059, 0.0073, 1204, 50859, 0.0000, 0.0000, -0.4253, 0.0000
6.3160, -0.5590, 0.0981, -10.0224, 0.0035, 0.0003, -0.0097, -0.1316, -0.0042, -0.3140, 0.0194, -0.0062, 0.0069, 1205, 50859, 0.0000, 0.0000, -0.4320, 0.0000
6.3360, -0.5590, 0.0981, -10.0224, 0.0035, 0.0003, -0.0097, -0.1309, -0.0045, -0.3178, 0.0191, -0.0053, 0.0076, 1206, 50859, 0.0000, 0.0000, -0.4387, 0.0000
6.3560, -0.5590, 0.0981, -10.0224, 0.0035, 0.0003, -0.0097, -0.1303, -0.0049, -0.3212, 0.0190, -0.0055, 0.0084, 1207, 50859, 0.0000, 0.0000, -0.4453, 0.0000
6.3760, -0.5590, 0.0981, -10.0224, 0.0035, 0.0003, -0.0097, -0.1295, -0.0052, -0.3249, 0.0197, -0.0063, 0.0090, 1208, 50859, 0.0000, 0.0000, -0.4520, 0.0000
6.3960, -0.5590, 0.0981, -10.0224, 0.0035, 0.0003, -0.0097, -0.1289, -0.0055, -0.3287, 0.0199, -0.0067, 0.0094, 1209, 50859, 0.0000, 0.0000, -0.4587, 0.0000
6.4160, -0.5590, 0.0981, -10.0224, 0.0035, 0.0003, -0.0097, -0.1281, -0.0059, -0.3323, 0.0201, -0.0062, 0.0079, 1210, 50859, 0.0000, 0.0000, -0.4653, 0.0000
6.4360, -0.5590, 0.0981, -10.0224, 0.0035, 0.0003, -0.0097, -0.1273, -0.0065, -0.3364, 0.0200, -0.0061, 0.0073, 1211, 50859, 0.0000, 0.0000, -0.4720, 0.0000
6.4560, -0.5590, 0.0981, -10.0224, 0.0035, 0.0003, -0.0097, -0.1265, -0.0068, -0.3402, 0.0215, -0.0055, 0.0070, 1212, 50859, 0.0000, 0.0000, -0.4787, 0.0000
6.4760, -0.5590, 0.0981, -10.0224, 0.0035, 0.0003, -0.0097, -0.1257, -0.0073, -0.3441, 0.0214, -0.0042, 0.0049, 1213, 50859, 0.0000, 0.0000, -0.4853, 0.0000
6.4960, -0.5590, 0.0981, -10.0224, 0.0035, 0.0003, -0.0097, -0.1249, -0.0076, -0.3479, 0.0219, -0.0036, 0.0047, 1214, 50859, 0.0000, 0.0000, -0.4920, 0.0000
6.5160, -0.5590, 0.0981, -10.0224, 0.0035, 0.0003, -0.0097, -0.1241, -0.0080, -0.3518, 0.0226, -0.0030, 0.0056, 1215, 50859, 0.0000, 0.0000, -0.4987, 0.0000
6.5360, -0.5590, 0.0981, -10.0224, 0.0035, 0.0003, -0.0097, -0.1233, -0.0083, -0.3558, 0.0225, -0.0023, 0.0070, 1216, 50859, 0.0000, 0.0000, -0.5053, 0.0000
6.5560, -0.5590, 0.0981, -10.0224, 0.0035, 0.0003, -0.0097, -0.1224, -0.0086, -0.3592, 0.0226, -0.0020, 0.0092, 1217, 50859, 0.0000, 0.0000, -0.5120, 0.0000
6.5760, -0.5590, 0.0981, -10.0224, 0.0035, 0.0003, -0.0097, -0.1216, -0.0090, -0.3629, 0.0227, -0.0013, 0.0104, 1218, 50859, 0.0000, 0.0000, -0.5187, 0.0000
6.5960, -0.5590, 0.0981, -10.0224, 0.0035, 0.0003, -0.0097, -0.1207, -0.0093, -0.3668, 0.0235, -0.0014, 0.0095, 1219, 50859, 0.0000, 0.0000, -0.5253, 0.0000
6.6160, -0.5590, 0.0981, -10.0224, 0.0035, 0.0003, -0.0097, -0.1197, -0.0098, -0.3706, 0.0230, -0.0017, 0.0098, 1220, 50859, 0.0000, 0.0000, -0.5320, 0.0000
6.6360, -0.5590, 0.0981, -10.0224, 0.0035, 0.0003, -0.0097, -0.1190, -0.0100, -0.3746, 0.0238, -0.0018, 0.0097, 1221, 50859, 0.0000, 0.0000, -0.5387, 0.0000
6.6560, -0.5590, 0.0981, -10.0224, 0.0035, 0.0003, -0.0097, -0.1182, -0.0103, -0.3785, 0.0236, -0.0010, 0.0109, 1222, 50859, 0.0000, 0.0000, -0.5453, 0.0000
6.6760, -0.5590, 0.0981, -10.0224, 0.0035, 0.0003, -0.0097, -0.1172, -0.0106, -0.3821, 0.0238, -0.0010, 0.0120, 1223, 50859, 0.0000, 0.0000, -0.5520, 0.0000
6.6960, -0.5590, 0.0981, -10.0224, 0.0035, 0.0003, -0.0097, -0.1164, -0.0106, -0.3858, 0.0247, -0.0012, 0.0137, 1224, 50859, 0.0000, 0.0000, -0.5587, 0.0000
6.7160, -0.5590, 0.0981, -10.0224, 0.0035, 0.0003, -0.0097, -0.1155, -0.0110, -0.3895, 0.0241, -0.0004, 0.0143, 1225, 50859, 0.0000, 0.0000, -0.5653, 0.0000
6.7360, -0.5590, 0.0981, -10.0224, 0.0035, 0.0003, -0.0097, -0.1146, -0.0111, -0.3930, 0.0244, 0.0011, 0.0145, 1226, 50859, 0.0000, 0.0000, -0.5720, 0.0000
6.7560, -0.5590, 0.0981, -10.0224, 0.0035, 0.0003, -0.0097, -0.1138, -0.0115, -0.3966, 0.0240, 0.0012, 0.0138, 1227, 50859, 0.0000, 0.0000, -0.5787, 0.0000
6.7760, -0.5590, 0.0981, -10.0224, 0.0035, 0.0003, -0.0097, -0.1129, -0.0115, -0.4003, 0.0249, 0.0020, 0.0135, 1228, 50859, 0.0000, 0.0000, -0.5853, 0.0000
6.7960, -0.5590, 0.0981, -10.0224, 0.0035, 0.0003, -0.0097, -0.1122, -0.0117, -0.4041, 0.0248, 0.0036, 0.0135, 1229, 50859, 0.0000, 0.0000, -0.5920, 0.0000
6.8160, -0.5590, 0.0981, -10.0224, 0.0035, 0.0003, -0.0097, -0.1113, -0.0118, -0.4079, 0.0247, 0.0040, 0.0136, 1230, 50859, 0.0000, 0.0000, -0.5987, 0.0000
6.8360, -0.5590, 0.0981, -10.0224, 0.0035, 0.0003, -0.0097, -0.1106, -0.0118, -0.4118, 0.0247, 0.0048, 0.0146, 1231, 50859, 0.0000, 0.0000, -0.6053, 0.0000
6.8560, -0.5590, 0.0981, -10.0224, 0.0035, 0.0003, -0.0097, -0.1098, -0.0119, -0.4156, 0.0245, 0.0054, 0.0147, 1232, 50859, 0.0000, 0.0000, -0.6120, 0.0000
6.8760, -0.5590, 0.0981, -10.0224, 0.0035, 0.0003, -0.0097, -0.1092, -0.0118, -0.4193, 0.0244, 0.0063, 0.0165, 1233, 50859, 0.0000, 0.0000, -0.6187, 0.0000
6.8960, -0.5590, 0.0981, -10.0224, 0.0035, 0.0003, -0.0097, -0.1085, -0.0118, -0.4229, 0.0249, 0.0064, 0.0176, 1234, 50859, 0.0000, 0.0000, -0.6253, 0.0000
6.9160, -0.5590, 0.0981, -10.0224, 0.0035, 0.0003, -0.0097, -0.1079, -0.0118, -0.4268, 0.0245, 0.0064, 0.0172, 1235, 50859, 0.0000, 0.0000, -0.6320, 0.0000
6.9360, -0.5590, 0.0981, -10.0224, 0.0035, 0.0003, -0.0097, -0.1072, -0.0118, -0.4304, 0.0246, 0.0065, 0.0158, 1236, 50859, 0.0000, 0.0000, -0.6387, 0.0000
6.9560, -0.5590, 0.0981, -10.0224, 0.0035, 0.0003, -0.0097, -0.1066, -0.0117, -0.4345, 0.0242, 0.0064, 0.0147, 1237, 50859, 0.0000, 0.0000, -0.6453, 0.0000
6.9760, -0.5590, 0.0981, -10.0224, 0.0035, 0.0003, -0.0097, -0.1061, -0.0116, -0.4385, 0.0245, 0.0067, 0.0138, 1238, 50859, 0.0000, 0.0000, -0.6520, 0.0000
6.9960, -0.5590, 0.0981, -10.0224, 0.0035, 0.0003, -0.0097, -0.1056, -0.0116, -0.4425, 0.0240, 0.0077, 0.0130, 1239, 50859, 0.0000, 0.0000, -0.6587, 0.0000
7.0160, -0.5590, 0.0981, -10.0224, 0.0035, 0.0003, -0.0097, -0.1050, -0.0113, -0.4465, 0.0238, 0.0071, 0.0125, 1240, 50859, 0.0000, 0.0000, -0.6653, 0.0000
7.0360, -0.5590, 0.0981, -10.0224, 0.0035, 0.0003, -0.0097, -0.1046, -0.0111, -0.4507, 0.0245, 0.0079, 0.0124, 1241, 50859, 0.0000, 0.0000, -0.6720, 0.0000
7.0560, -0.5590, 0.0981, -10.0224, 0.0035, 0.0003, -0.0097, -0.1041, -0.0110, -0.4548, 0.0236, 0.0086, 0.0111, 1242, 50859, 0.0000, 0.0000, -0.6787, 0.0000
7.0760, -0.5590, 0.0981, -10.0224, 0.0035, 0.0003, -0.0097, -0.1036, -0.0107, -0.4589, 0.0238, 0.0087, 0.0109, 1243, 50859, 0.0000, 0.0000, -0.6853, 0.0000
7.0960, -0.5590, 0.0981, -10.0224, 0.0035, 0.0003, -0.0097, -0.1032, -0.0104, -0.4632, 0.0234, 0.0087, 0.0109, 1244, 50859, 0.0000, 0.0000, -0.6920, 0.0000
7.1160, -0.5590, 0.0981, -10.0224, 0.0035, 0.0003, -0.0097, -0.1029, -0.0102, -0.4675, 0.0233, 0.0089, 0.0107, 1245, 50859, 0.0000, 0.0000, -0.6987, 0.0000
7.1360, -0.5590, 0.0981, -10.0224, 0.0035, 0.0003, -0.0097, -0.1024, -0.0100, -0.4717, 0.0232, 0.0093, 0.0099, 1246, 50859, 0.0000, 0.0000, -0.7053, 0.0000
7.1560, -0.5590, 0.0981, -10.0224, 0.0035, 0.0003, -0.0097, -0.1022, -0.0097, -0.4762, 0.0228, 0.0100, 0.0088, 1247, 50859, 0.0000, 0.0000, -0.7120, 0.0000
7.1760, -0.5590, 0.0981, -10.0224, 0.0035, 0.0003, -0.0097, -0.1019, -0.0094, -0.4807, 0.0231, 0.0098, 0.0083, 1248, 50859, 0.0000, 0.0000, -0.7187, 0.0000
7.1960, -0.5590, 0.0981, -10.0224, 0.0035, 0.0003, -0.0097, -0.1015, -0.0093, -0.4851, 0.0228, 0.0105, 0.0079, 1249, 50859, 0.0000, 0.0000, -0.7253, 0.0000
7.2170, -0.5590, 0.0981, -10.0224, 0.0035, 0.0003, -0.0097, -0.1014, -0.0090, -0.4895, 0.0229, 0.0105, 0.0075, 1250, 50859, 0.0000, 0.0000, -0.7320, 0.0000
7.2380, -0.5590, 0.0981, -10.0224, 0.0035, 0.0003, -0.0097, -0.1012, -0.0087, -0.4941, 0.0235, 0.0102, 0.0080, 1251, 50859, 0.0000, 0.0000, -0.7390, 0.0000
7.2580, -0.5590, 0.0981, -10.0224, 0.0035, 0.0003, -0.0097, -0.1011, -0.0085, -0.4986, 0.0231, 0.0109, 0.0079, 1252, 50859, 0.0000, 0.0000, -0.7460, 0.0000
7.2780, -0.5590, 0.0981, -10.0224, 0.0035, 0.0003, -0.0097, -0.1008, -0.0083, -0.5033, 0.0233, 0.0107, 0.0077, 1253, 50859, 0.0000, 0.0000, -0.7527, 0.0000
7.2980, -0.5590, 0.0981, -10.0224, 0.0035, 0.0003, -0.0097, -0.1007, -0.0081, -0.5079, 0.0231, 0.0106, 0.0069, 1254, 50859, 0.0000, 0.0000, -0.7593, 0.0000
7.3170, -0.5590, 0.0981, -10.0224, 0.0035, 0.0003, -0.0097, -0.1008, -0.0078, -0.5125, 0.0235, 0.0109, 0.0063, 1255, 50859, 0.0000, 0.0000, -0.7660, 0.0000
7.3370, -0.5590, 0.0981, -10.0224, 0.0035, 0.0003, -0.0097, -0.1007, -0.0078, -0.5172, 0.0240, 0.0115, 0.0055, 1256, 50859, 0.0000, 0.0000, -0.7723, 0.0000
7.3580, -0.5590, 0.0981, -10.0224, 0.0035, 0.0003, -0.0097, -0.1008, -0.0076, -0.5217, 0.0234, 0.0108, 0.0049, 1257, 50859, 0.0000, 0.0000, -0.7790, 0.0000
7.3770, -0.5590, 0.0981, -10.0224, 0.0035, 0.0003, -0.0097, -0.1008, -0.0074, -0.5266, 0.0240, 0.0110, 0.0046, 1258, 50859, 0.0000, 0.0000, -0.7860, 0.0000
7.3980, -0.5590, 0.0981, -10.0224, 0.0035, 0.0003, -0.0097, -0.1009, -0.0073, -0.5312, 0.0237, 0.0111, 0.0051, 1259, 50859, 0.0000, 0.0000, -0.7923, 0.0000
7.4170, -0.5590, 0.0981, -10.0224, 0.0035, 0.0003, -0.0097, -0.1010, -0.0071, -0.5358, 0.0237, 0.0107, 0.0064, 1260, 50859, 0.0000, 0.0000, -0.7993, 0.0000
7.4380, -0.5590, 0.0981, -10.0224, 0.0035, 0.0003, -0.0097, -0.1012, -0.0070, -0.5405, 0.0240, 0.0101, 0.0068, 1261, 50859, 0.0000, 0.0000, -0.8057, 0.0000
7.4570, -0.5590, 0.0981, -10.0224, 0.0035, 0.0003, -0.0097, -0.1014, -0.0069, -0.5451, 0.0244, 0.0090, 0.0063, 1262, 50859, 0.0000, 0.0000, -0.8127, 0.0000
7.4770, -0.5590, 0.0981, -10.0224, 0.0035, 0.0003, -0.0097, -0.1014, -0.0069, -0.5500, 0.0247, 0.0095, 0.0051, 1263, 50859, 0.0000, 0.0000, -0.8190, 0.0000
7.4970, -0.5590, 0.0981, -10.0224, 0.0035, 0.0003, -0.0097, -0.1017, -0.0070, -0.5545, 0.0244, 0.0091, 0.0041, 1264, 50859, 0.0000, 0.0000, -0.8257, 0.0000
7.5170, -0.5590, 0.0981, -10.0224, 0.0035, 0.0003, -0.0097, -0.1019, -0.0068, -0.5594, 0.0249, 0.0091, 0.0033, 1265, 50859, 0.0000, 0.0000, -0.8323, 0.0000
7.5370, -0.5590, 0.0981, -10.0224, 0.0035, 0.0003, -0.0097, -0.1022, -0.0068, -0.5643, 0.0251, 0.0095, 0.0039, 1266, 50859, 0.0000, 0.0000, -0.8390, 0.0000
7.5580, -0.5590, 0.0981, -10.0224, 0.0035, 0.0003, -0.0097, -0.1025, -0.0068, -0.5687, 0.0250, 0.0097, 0.0045, 1267, 50859, 0.0000, 0.0000, -0.8457, 0.0000
7.5770, -0.5590, 0.0981, -10.0224, 0.0035, 0.0003, -0.0097, -0.1028, -0.0067, -0.5735, 0.0253, 0.0099, 0.0057, 1268, 50859, 0.0000, 0.0000, -0.8527, 0.0000
7.5980, -0.5590, 0.0981, -10.0224, 0.0035, 0.0003, -0.0097, -0.1033, -0.0067, -0.5782, 0.0259, 0.0096, 0.0072, 1269, 50859, 0.0000, 0.0000, -0.8590, 0.0000
7.6170, -0.5590, 0.0981, -10.0224, 0.0035, 0.0003, -0.0097, -0.1035, -0.0067, -0.5829, 0.0260, 0.0093, 0.0063, 1270, 50859, 0.0000, 0.0000, -0.8660, 0.0000
7.6380, -0.5590, 0.0981, -10.0224, 0.0035, 0.0003, -0.0097, -0.1039, -0.0070, -0.5877, 0.0257, 0.0091, 0.0042, 1271, 50859, 0.0000, 0.0000, -0.8723, 0.0000
7.6570, -0.5590, 0.0981, -10.0224, 0.0035, 0.0003, -0.0097, -0.1042, -0.0069, -0.5926, 0.0268, 0.0084, 0.0041, 1272, 50859, 0.0000, 0.0000, -0.8793, 0.0000
7.6780, -0.5590, 0.0981, -10.0224, 0.0035, 0.0003, -0.0097, -0.1047, -0.0071, -0.5976, 0.0271, 0.0088, 0.0036, 1273, 50859, 0.0000, 0.0000, -0.8857, 0.0000
7.6980, -0.5590, 0.0981, -10.0224, 0.0035, 0.0003, -0.0097, -0.1052, -0.0073, -0.6022, 0.0269, 0.0093, 0.0032, 1274, 50859, 0.0000, 0.0000, -0.8927, 0.0000
7.7170, -0.5590, 0.0981, -10.0224, 0.0035, 0.0003, -0.0097, -0.1056, -0.0073, -0.6071, 0.0279, 0.0093, 0.0046, 1275, 50859, 0.0000, 0.0000, -0.8993, 0.0000
7.7380, -0.5590, 0.0981, -10.0224, 0.0035, 0.0003, -0.0097, -0.1061, -0.0075, -0.6119, 0.0276, 0.0089, 0.0053, 1276, 50859, 0.0000, 0.0000, -0.9057, 0.0000
7.7590, -0.5590, 0.0981, -10.0224, 0.0035, 0.0003, -0.0097, -0.1066, -0.0076, -0.6168, 0.0281, 0.0089, 0.0052, 1277, 50859, 0.0000, 0.0000, -0.9127, 0.0000
7.7790, -0.5590, 0.0981, -10.0224, 0.0035, 0.0003, -0.0097, -0.1071, -0.0079, -0.6216, 0.0281, 0.0081, 0.0047, 1278, 50859, 0.0000, 0.0000, -0.9197, 0.0000
7.7990, -0.5590, 0.0981, -10.0224, 0.0035, 0.0003, -0.0097, -0.1077, -0.0080, -0.6267, 0.0284, 0.0076, 0.0040, 1279, 50859, 0.0000, 0.0000, -0.9263, 0.0000
7.8190, -0.5590, 0.0981, -10.0224, 0.0035, 0.0003, -0.0097, -0.1083, -0.0082, -0.6318, 0.0292, 0.0074, 0.0047, 1280, 50859, 0.0000, 0.0000, -0.9330, 0.0000
7.8390, -0.5590, 0.0981, -10.0224, 0.0035, 0.0003, -0.0097, -0.1089, -0.0085, -0.6368, 0.0285, 0.0071, 0.0040, 1281, 50859, 0.0000, 0.0000, -0.9397, 0.0000
7.8590, -0.5590, 0.0981, -10.0224, 0.0035, 0.0003, -0.0097, -0.1093, -0.0088, -0.6419, 0.0292, 0.0070, 0.0039, 1282, 50859, 0.0000, 0.0000, -0.9463, 0.0000
7.8790, -0.5590, 0.0981, -10.0224, 0.0035, 0.0003, -0.0097, -0.1100, -0.0091, -0.6471, 0.0294, 0.0066, 0.0039, 1283, 50859, 0.0000, 0.0000, -0.9530, 0.0000
7.8990, -0.5590, 0.0981, -10.0224, 0.0035, 0.0003, -0.0097, -0.1106, -0.0093, -0.6524, 0.0297, 0.0063, 0.0033, 1284, 50859, 0.0000, 0.0000, -0.9597, 0.0000
7.9190, -0.5590, 0.0981, -10.0224, 0.0035, 0.0003, -0.0097, -0.1112, -0.0098, -0.6577, 0.0298, 0.0064, 0.0030, 1285, 50859, 0.0000, 0.0000, -0.9663, 0.0000
7.9390, -0.5590, 0.0981, -10.0224, 0.0035, 0.0003, -0.0097, -0.1118, -0.0101, -0.6629, 0.0297, 0.0053, 0.0029, 1286, 50859, 0.0000, 0.0000, -0.9730, 0.0000
7.9590, -0.5590, 0.0981, -10.0224, 0.0035, 0.0003, -0.0097, -0.1124, -0.0103, -0.6685, 0.0304, 0.0053, 0.0031, 1287, 50859, 0.0000, 0.0000, -0.9797, 0.0000
7.9790, -0.5590, 0.0981, -10.0224, 0.0035, 0.0003, -0.0097, -0.1132, -0.0109, -0.6739, 0.0303, 0.0052, 0.0033, 1288, 50859, 0.0000, 0.0000, -0.9863, 0.0000
7.9990, -0.5590, 0.0981, -10.0224, 0.0035, 0.0003, -0.0097, -0.1137, -0.0112, -0.6794, 0.0302, 0.0040, 0.0034, 1289, 50859, 0.0000, 0.0000, -0.9930, 0.0000
8.0190, -0.5590, 0.0981, -10.0224, 0.0035, 0.0003, -0.0097, -0.1144, -0.0115, -0.6850, 0.0305, 0.0038, 0.0037, 1290, 50859, 0.0000, 0.0000, -0.9997, 0.0000
8.0390, -0.5590, 0.0981, -10.0224, 0.0035, 0.0003, -0.0097, -0.1151, -0.0120, -0.6905, 0.0308, 0.0030, 0.0044, 1291, 50859, 0.0000, 0.0000, -1.0000, 0.0000
8.0590, -0.5590, 0.0981, -10.0224, 0.0035, 0.0003, -0.0097, -0.1157, -0.0124, -0.6964, 0.0309, 0.0030, 0.0039, 1292, 50859, 0.0000, 0.0000, -1.0000, 0.0000
8.0790, -0.5590, 0.0981, -10.0224, 0.0035, 0.0003, -0.0097, -0.1163, -0.0130, -0.7018, 0.0306, 0.0021, 0.0045, 1293, 50859, 0.0000, 0.0000, -1.0000, 0.0000
8.0990, -0.5590, 0.0981, -10.0224, 0.0035, 0.0003, -0.0097, -0.1169, -0.0134, -0.7076, 0.0309, 0.0010, 0.0047, 1294, 50859, 0.0000, 0.0000, -1.0000, 0.0000
8.1190, -0.5590, 0.0981, -10.0224, 0.0035, 0.0003, -0.0097, -0.1176, -0.0138, -0.7133, 0.0313, 0.0007, 0.0062, 1295, 50859, 0.0000, 0.0000, -1.0000, 0.0000
8.1390, -0.5590, 0.0981, -10.0224, 0.0035, 0.0003, -0.0097, -0.1181, -0.0143, -0.7188, 0.0314, -0.0002, 0.0066, 1296, 50859, 0.0000, 0.0000, -1.0000, 0.0000
8.1590, -0.5590, 0.0981, -10.0224, 0.0035, 0.0003, -0.0097, -0.1187, -0.0149, -0.7244, 0.0316, -0.0005, 0.0064, 1297, 50859, 0.0000, 0.0000, -1.0000, 0.0000
8.1790, -0.5590, 0.0981, -10.0224, 0.0035, 0.0003, -0.0097, -0.1193, -0.0154, -0.7299, 0.0318, -0.0013, 0.0063, 1298, 50859, 0.0000, 0.0000, -1.0000, 0.0000
8.1990, -0.5590, 0.0981, -10.0224, 0.0035, 0.0003, -0.0097, -0.1197, -0.0159, -0.7357, 0.0321, -0.0015, 0.0060, 1299, 50859, 0.0000, 0.0000, -1.0000, 0.0000
8.2190, -0.5590, 0.0981, -10.0224, 0.0035, 0.0003, -0.0097, -0.1203, -0.0166, -0.7411, 0.0316, -0.0014, 0.0057, 1300, 50859, 0.0000, 0.0000, -1.0000, 0.0000
8.2390, -0.5590, 0.0981, -10.0224, 0.0035, 0.0003, -0.0097, -0.1207, -0.0170, -0.7467, 0.0320, -0.0021, 0.0054, 1301, 50859, 0.0000, 0.0000, -1.0000, 0.0000
8.2590, -0.5590, 0.0981, -10.0224, 0.0035, 0.0003, -0.0097, -0.1213, -0.0176, -0.7522, 0.0323, -0.0020, 0.0064, 1302, 50859, 0.0000, 0.0000, -1.0000, 0.0000
8.2790, -0.5590, 0.0981, -10.0224, 0.0035, 0.0003, -0.0097, -0.1217, -0.0182, -0.7576, 0.0321, -0.0018, 0.0067, 1303, 50859, 0.0000, 0.0000, -1.0000, 0.0000
8.2990, -0.5590, 0.0981, -10.0224, 0.0035, 0.0003, -0.0097, -0.1221, -0.0186, -0.7630, 0.0323, -0.0023, 0.0075, 1304, 50859, 0.0000, 0.0000, -1.0000, 0.0000
8.3190, -0.5590, 0.0981, -10.0224, 0.0035, 0.0003, -0.0097, -0.1226, -0.0192, -0.7678, 0.0324, -0.0023, 0.0082, 1305, 50859, 0.0000, 0.0000, -1.0000, 0.0000
8.3390, -0.5590, 0.0981, -10.0224, 0.0035, 0.0003, -0.0097, -0.1228, -0.0197, -0.7720, 0.0330, -0.0015, 0.0093, 1306, 50859, 0.0000, 0.0000, -1.0000, 0.0000
8.3590, -0.5590, 0.0981, -10.0224, 0.0035, 0.0003, -0.0097, -0.1233, -0.0204, -0.7760, 0.0327, -0.0032, 0.0089, 1307, 50859, 0.0000, 0.0000, -1.0000, 0.0000
8.3790, -0.5590, 0.0981, -10.0224, 0.0035, 0.0003, -0.0097, -0.1237, -0.0208, -0.7802, 0.0334, -0.0020, 0.0093, 1308, 50859, 0.0000, 0.0000, -1.0000, 0.0000
8.3990, -0.5590, 0.0981, -10.0224, 0.0035, 0.0003, -0.0097, -0.1239, -0.0214, -0.7840, 0.0328, -0.0021, 0.0110, 1309, 50859, 0.0000, 0.0000, -1.0000, 0.0000
8.4190, -0.5590, 0.0981, -10.0224, 0.0035, 0.0003, -0.0097, -0.1242, -0.0218, -0.7875, 0.0332, -0.0033, 0.0130, 1310, 50859, 0.0000, 0.0000, -1.0000, 0.0000
8.4390, -0.5590, 0.0981, -10.0224, 0.0035, 0.0003, -0.0097, -0.1244, -0.0222, -0.7911, 0.0329, -0.0034, 0.0149, 1311, 50859, 0.0000, 0.0000, -1.0000, 0.0000
8.4590, -0.5590, 0.0981, -10.0224, 0.0035, 0.0003, -0.0097, -0.1247, -0.0226, -0.7946, 0.0333, -0.0041, 0.0159, 1312, 50859, 0.0000, 0.0000, -1.0000, 0.0000
8.4790, -0.5590, 0.0981, -10.0224, 0.0035, 0.0003, -0.0097, -0.1249, -0.0231, -0.7980, 0.0331, -0.0040, 0.0152, 1313, 50859, 0.0000, 0.0000, -1.0000, 0.0000
8.4990, -0.5590, 0.0981, -10.0224, 0.0035, 0.0003, -0.0097, -0.1252, -0.0236, -0.8013, 0.0329, -0.0045, 0.0146, 1314, 50859, 0.0000, 0.0000, -1.0000, 0.0000
8.5190, -0.5590, 0.0981, -10.0224, 0.0035, 0.0003, -0.0097, -0.1255, -0.0239, -0.8050, 0.0334, -0.0033, 0.0153, 1315, 50859, 0.0000, 0.0000, -1.0000, 0.0000
8.5390, -0.5590, 0.0981, -10.0224, 0.0035, 0.0003, -0.0097, -0.1256, -0.0243, -0.8082, 0.0325, -0.0036, 0.0164, 1316, 50859, 0.0000, 0.0000, -1.0000, 0.0000
8.5590, -0.5590, 0.0981, -10.0224, 0.0035, 0.0003, -0.0097, -0.1257, -0.0246, -0.8116, 0.0325, -0.0033, 0.0174, 1317, 50859, 0.0000, 0.0000, -1.0000, 0.0000
8.5790, -0.5590, 0.0981, -10.0224, 0.0035, 0.0003, -0.0097, -0.1260, -0.0248, -0.8150, 0.0326, -0.0026, 0.0182, 1318, 50859, 0.0000, 0.0000, -1.0000, 0.0000
8.5990, -0.5590, 0.0981, -10.0224, 0.0035, 0.0003, -0.0097, -0.1262, -0.0250, -0.8184, 0.0327, -0.0019, 0.0181, 1319, 50859, 0.0000, 0.0000, -1.0000, 0.0000
8.6190, -0.5590, 0.0981, -10.0224, 0.0035, 0.0003, -0.0097, -0.1263, -0.0254, -0.8217, 0.0326, -0.0015, 0.0173, 1320, 50859, 0.0000, 0.0000, -1.0000, 0.0000
8.6390, -0.5590, 0.0981, -10.0224, 0.0035, 0.0003, -0.0097, -0.1263, -0.0256, -0.8252, 0.0325, -0.0019, 0.0170, 1321, 50859, 0.0000, 0.0000, -1.0000, 0.0000
8.6590, -0.5590, 0.0981, -10.0224, 0.0035, 0.0003, -0.0097, -0.1265, -0.0257, -0.8287, 0.0329, -0.0019, 0.0163, 1322, 50859, 0.0000, 0.0000, -1.0000, 0.0000
8.6790, -0.5590, 0.0981, -10.0224, 0.0035, 0.0003, -0.0097, -0.1266, -0.0259, -0.8321, 0.0323, -0.0017, 0.0158, 1323, 50859, 0.0000, 0.0000, -1.0000, 0.0000
8.6990, -0.5590, 0.0981, -10.0224, 0.0035, 0.0003, -0.0097, -0.1266, -0.0260, -0.8353, 0.0321, -0.0017, 0.0160, 1324, 50859, 0.0000, 0.0000, -1.0000, 0.0000
8.7190, -0.5590, 0.0981, -10.0224, 0.0035, 0.0003, -0.0097, -0.1267, -0.0260, -0.8387, 0.0319, -0.0015, 0.0173, 1325, 50859, 0.0000, 0.0000, -1.0000, 0.0000
8.7390, -0.5590, 0.0981, -10.0224, 0.0035, 0.0003, -0.0097, -0.1268, -0.0260, -0.8418, 0.0315, -0.0023, 0.0185, 1326, 50859, 0.0000, 0.0000, -1.0000, 0.0000
8.7590, -0.5590, 0.0981, -10.0224, 0.0035, 0.0003, -0.0097, -0.1270, -0.0261, -0.8449, 0.0316, -0.0007, 0.0184, 1327, 50859, 0.0000, 0.0000, -1.0000, 0.0000
8.7790, -0.5590, 0.0981, -10.0224, 0.0035, 0.0003, -0.0097, -0.1269, -0.0260, -0.8480, 0.0310, -0.0011, 0.0178, 1328, 50859, 0.0000, 0.0000, -1.0000, 0.0000
8.7990, -0.5590, 0.0981, -10.0224, 0.0035, 0.0003, -0.0097, -0.1271, -0.0260, -0.8511, 0.0313, 0.0003, 0.0165, 1329, 50859, 0.0000, 0.0000, -1.0000, 0.0000
8.8190, -0.5590, 0.0981, -10.0224, 0.0035, 0.0003, -0.0097, -0.1271, -0.0260, -0.8543, 0.0309, 0.0008, 0.0158, 1330, 50859, 0.0000, 0.0000, -1.0000, 0.0000
8.8390, -0.5590, 0.0981, -10.0224, 0.0035, 0.0003, -0.0097, -0.1271, -0.0259, -0.8572, 0.0305, 0.0002, 0.0159, 1331, 50859, 0.0000, 0.0000, -1.0000, 0.0000
8.8590, -0.5590, 0.0981, -10.0224, 0.0035, 0.0003, -0.0097, -0.1273, -0.0257, -0.8603, 0.0308, 0.0009, 0.0162, 1332, 50859, 0.0000, 0.0000, -1.0000, 0.0000
8.8790, -0.5590, 0.0981, -10.0224, 0.0035, 0.0003, -0.0097, -0.1274, -0.0255, -0.8632, 0.0306, 0.0005, 0.0163, 1333, 50859, 0.0000, 0.0000, -1.0000, 0.0000
8.8990, -0.5590, 0.0981, -10.0224, 0.0035, 0.0003, -0.0097, -0.1274, -0.0254, -0.8662, 0.0306, 0.0015, 0.0154, 1334, 50859, 0.0000, 0.0000, -1.0000, 0.0000
8.9210, -0.5590, 0.0981, -10.0224, 0.0035, 0.0003, -0.0097, -0.1274, -0.0252, -0.8691, 0.0300, 0.0010, 0.0149, 1335, 50859, 0.0000, 0.0000, -1.0000, 0.0000
8.9410, -0.5590, 0.0981, -10.0224, 0.0035, 0.0003, -0.0097, -0.1276, -0.0250, -0.8721, 0.0304, 0.0015, 0.0137, 1336, 50859, 0.0000, 0.0000, -1.0000, 0.0000
8.9610, -0.5590, 0.0981, -10.0224, 0.0035, 0.0003, -0.0097, -0.1276, -0.0248, -0.8750, 0.0302, 0.0019, 0.0138, 1337, 50859, 0.0000, 0.0000, -1.0000, 0.0000
8.9810, -0.5590, 0.0981, -10.0224, 0.0035, 0.0003, -0.0097, -0.1277, -0.0245, -0.8778, 0.0299, 0.0016, 0.0130, 1338, 50859, 0.0000, 0.0000, -1.0000, 0.0000
9.0010, -0.5590, 0.0981, -10.0224, 0.0035, 0.0003, -0.0097, -0.1277, -0.0242, -0.8806, 0.0302, 0.0011, 0.0133, 1339, 50859, 0.0000, 0.0000, -1.0000, 0.0000
9.0210, -0.5590, 0.0981, -10.0224, 0.0035, 0.0003, -0.0097, -0.1278, -0.0240, -0.8833, 0.0300, 0.0003, 0.0134, 1340, 50859, 0.0000, 0.0000, -1.0000, 0.0000
9.0410, -0.5590, 0.0981, -10.0224, 0.0035, 0.0003, -0.0097, -0.1279, -0.0236, -0.8852, 0.0301, 0.0012, 0.0132, 1341, 50859, 0.0000, 0.0000, -1.0000, 0.0000
9.0610, -0.5590, 0.0981, -10.0224, 0.0035, 0.0003, -0.0097, -0.1280, -0.0233, -0.8870, 0.0298, -0.0007, 0.0129, 1342, 50859, 0.0000, 0.0000, -1.0000, 0.0000
9.0810, -0.5590, 0.0981, -10.0224, 0.0035, 0.0003, -0.0097, -0.1281, -0.0229, -0.8887, 0.0304, 0.0013, 0.0133, 1343, 50859, 0.0000, 0.0000, -1.0000, 0.0000
9.1010, -0.5590, 0.0981, -10.0224, 0.0035, 0.0003, -0.0097, -0.1282, -0.0228, -0.8901, 0.0297, 0.0013, 0.0121, 1344, 50859, 0.0000, 0.0000, -1.0000, 0.0000
9.1210, -0.5590, 0.0981, -10.0224, 0.0035, 0.0003, -0.0097, -0.1283, -0.0224, -0.8916, 0.0300, 0.0011, 0.0121, 1345, 50859, 0.0000, 0.0000, -1.0000, 0.0000
9.1410, -0.5590, 0.0981, -10.0224, 0.0035, 0.0003, -0.0097, -0.1285, -0.0219, -0.8929, 0.0300, 0.0024, 0.0138, 1346, 50859, 0.0000, 0.0000, -1.0000, 0.0000
9.1610, -0.5590, 0.0981, -10.0224, 0.0035, 0.0003, -0.0097, -0.1286, -0.0215, -0.8942, 0.0298, 0.0033, 0.0147, 1347, 50859, 0.0000, 0.0000, -1.0000, 0.0000
9.1810, -0.5590, 0.0981, -10.0224, 0.0035, 0.0003, -0.0097, -0.1287, -0.0211, -0.8953, 0.0294, 0.0024, 0.0146, 1348, 50859, 0.0000, 0.0000, -1.0000, 0.0000
9.2010, -0.5590, 0.0981, -10.0224, 0.0035, 0.0003, -0.0097, -0.1289, -0.0208, -0.8968, 0.0299, 0.0031, 0.0143, 1349, 50859, 0.0000, 0.0000, -1.0000, 0.0000
9.2210, -0.5590, 0.0981, -10.0224, 0.0035, 0.0003, -0.0097, -0.1290, -0.0203, -0.8982, 0.0300, 0.0037, 0.0133, 1350, 50859, 0.0000, 0.0000, -1.0000, 0.0000
9.2410, -0.5590, 0.0981, -10.0224, 0.0035, 0.0003, -0.0097, -0.1292, -0.0201, -0.8994, 0.0296, 0.0033, 0.0120, 1351, 50859, 0.0000, 0.0000, -1.0000, 0.0000
9.2610, -0.5590, 0.0981, -10.0224, 0.0035, 0.0003, -0.0097, -0.1293, -0.0196, -0.9009, 0.0296, 0.0036, 0.0107, 1352, 50859, 0.0000, 0.0000, -1.0000, 0.0000
9.2810, -0.5590, 0.0981, -10.0224, 0.0035, 0.0003, -0.0097, -0.1297, -0.0191, -0.9025, 0.0299, 0.0051, 0.0109, 1353, 50859, 0.0000, 0.0000, -1.0000, 0.0000
9.3010, -0.5590, 0.0981, -10.0224, 0.0035, 0.0003, -0.0097, -0.1299, -0.0187, -0.9038, 0.0292, 0.0044, 0.0105, 1354, 50859, 0.0000, 0.0000, -1.0000, 0.0000
9.3210, -0.5590, 0.0981, -10.0224, 0.0035, 0.0003, -0.0097, -0.1300, -0.0181, -0.9052, 0.0294, 0.0039, 0.0109, 1355, 50859, 0.0000, 0.0000, -1.0000, 0.0000
9.3410, -0.5590, 0.0981, -10.0224, 0.0035, 0.0003, -0.0097, -0.1304, -0.0177, -0.9068, 0.0293, 0.0038, 0.0106, 1356, 50859, 0.0000, 0.0000, -1.0000, 0.0000
9.3610, -0.5590, 0.0981, -10.0224, 0.0035, 0.0003, -0.0097, -0.1307, -0.0172, -0.9084, 0.0296, 0.0032, 0.0096, 1357, 50859, 0.0000, 0.0000, -1.0000, 0.0000
9.3810, -0.5590, 0.0981, -10.0224, 0.0035, 0.0003, -0.0097, -0.1309, -0.0168, -0.9098, 0.0292, 0.0036, 0.0093, 1358, 50859, 0.0000, 0.0000, -1.0000, 0.0000
9.4010, -0.5590, 0.0981, -10.0224, 0.0035, 0.0003, -0.0097, -0.1313, -0.0164, -0.9113, 0.0291, 0.0029, 0.0085, 1359, 50859, 0.0000, 0.0000, -1.0000, 0.0000
9.4210, -0.5590, 0.0981, -10.0224, 0.0035, 0.0003, -0.0097, -0.1317, -0.0158, -0.9128, 0.0296, 0.0033, 0.0089, 1360, 50859, 0.0000, 0.0000, -1.0000, 0.0000
9.4410, -0.5590, 0.0981, -10.0224, 0.0035, 0.0003, -0.0097, -0.1319, -0.0155, -0.9143, 0.0287, 0.0032, 0.0089, 1361, 50859, 0.0000, 0.0000, -1.0000, 0.0000
9.4610, -0.5590, 0.0981, -10.0224, 0.0035, 0.0003, -0.0097, -0.1323, -0.0150, -0.9156, 0.0289, 0.0030, 0.0097, 1362, 50859, 0.0000, 0.0000, -1.0000, 0.0000
9.4810, -0.5590, 0.0981, -10.0224, 0.0035, 0.0003, -0.0097, -0.1326, -0.0145, -0.9170, 0.0285, 0.0021, 0.0101, 1363, 50859, 0.0000, 0.0000, -1.0000, 0.0000
9.5010, -0.5590, 0.0981, -10.0224, 0.0035, 0.0003, -0.0097, -0.1331, -0.0140, -0.9185, 0.0287, 0.0027, 0.0098, 1364, 50859, 0.0000, 0.0000, -1.0000, 0.0000
9.5210, -0.5590, 0.0981, -10.0224, 0.0035, 0.0003, -0.0097, -0.1334, -0.0135, -0.9197, 0.0285, 0.0030, 0.0091, 1365, 50859, 0.0000, 0.0000, -1.0000, 0.0000
9.5410, -0.5590, 0.0981, -10.0224, 0.0035, 0.0003, -0.0097, -0.1338, -0.0132, -0.9210, 0.0283, 0.0019, 0.0081, 1366, 50859, 0.0000, 0.0000, -1.0000, 0.0000
9.5610, -0.5590, 0.0981, -10.0224, 0.0035, 0.0003, -0.0097, -0.1343, -0.0127, -0.9226, 0.0288, 0.0024, 0.0073, 1367, 50859, 0.0000, 0.0000, -1.0000, 0.0000
9.5810, -0.5590, 0.0981, -10.0224, 0.0035, 0.0003, -0.0097, -0.1347, -0.0124, -0.9240, 0.0285, 0.0027, 0.0069, 1368, 50859, 0.0000, 0.0000, -1.0000, 0.0000
9.6010, -0.5590, 0.0981, -10.0224, 0.0035, 0.0003, -0.0097, -0.1349, -0.0120, -0.9253, 0.0286, 0.0017, 0.0065, 1369, 50859, 0.0000, 0.0000, -1.0000, 0.0000
9.6210, -0.5590, 0.0981, -10.0224, 0.0035, 0.0003, -0.0097, -0.1355, -0.0115, -0.9267, 0.0289, 0.0018, 0.0061, 1370, 50859, 0.0000, 0.0000, -1.0000, 0.0000
9.6410, -0.5590, 0.0981, -10.0224, 0.0035, 0.0003, -0.0097, -0.1359, -0.0112, -0.9281, 0.0290, 0.0010, 0.0060, 1371, 50859, 0.0000, 0.0000, -1.0000, 0.0000
9.6610, -0.5590, 0.0981, -10.0224, 0.0035, 0.0003, -0.0097, -0.1362, -0.0107, -0.9295, 0.0292, 0.0010, 0.0056, 1372, 50859, 0.0000, 0.0000, -1.0000, 0.0000
9.6810, -0.5590, 0.0981, -10.0224, 0.0035, 0.0003, -0.0097, -0.1367, -0.0105, -0.9310, 0.0289, 0.0004, 0.0044, 1373, 50859, 0.0000, 0.0000, -1.0000, 0.0000
9.7010, -0.5590, 0.0981, -10.0224, 0.0035, 0.0003, -0.0097, -0.1371, -0.0101, -0.9324, 0.0295, -0.0003, 0.0039, 1374, 50859, 0.0000, 0.0000, -1.0000, 0.0000
9.7210, -0.5590, 0.0981, -10.0224, 0.0035, 0.0003, -0.0097, -0.1375, -0.0097, -0.9339, 0.0294, -0.0002, 0.0040, 1375, 50859, 0.0000, 0.0000, -1.0000, 0.0000
9.7410, -0.5590, 0.0981, -10.0224, 0.0035, 0.0003, -0.0097, -0.1375, -0.0096, -0.9337, 0.0287, -0.0137, 0.0048, 1376, 50859, 0.0000, 0.0000, -1.0000, 0.0000
9.7620, -0.5590, 0.0981, -10.0224, 0.0035, 0.0003, -0.0097, -0.1384, -0.0090, -0.9365, 0.0295, -0.0020, 0.0055, 1377, 50859, 0.0000, 0.0000, -1.0000, 0.0000
9.7820, -0.5590, 0.0981, -10.0224, 0.0035, 0.0003, -0.0097, -0.1388, -0.0088, -0.9378, 0.0293, -0.0036, 0.0055, 1378, 50859, 0.0000, 0.0000, -1.0000, 0.0000
9.8020, -0.5590, 0.0981, -10.0224, 0.0035, 0.0003, -0.0097, -0.1392, -0.0087, -0.9391, 0.0298, -0.0025, 0.0051, 1379, 50859, 0.0000, 0.0000, -1.0000, 0.0000
9.8220, -0.5590, 0.0981, -10.0224, 0.0035, 0.0003, -0.0097, -0.1391, -0.0086, -0.9388, 0.0289, -0.0160, 0.0052, 1380, 50859, 0.0000, 0.0000, -1.0000, 0.0000
9.8420, -0.5590, 0.0981, -10.0224, 0.0035, 0.0003, -0.0097, -0.1399, -0.0083, -0.9417, 0.0300, -0.0038, 0.0044, 1381, 50859, 0.0000, 0.0000, -1.0000, 0.0000
9.8620, -0.5590, 0.0981, -10.0224, 0.0035, 0.0003, -0.0097, -0.1404, -0.0080, -0.9430, 0.0306, -0.0018, 0.0044, 1382, 50859, 0.0000, 0.0000, -1.0000, 0.0000
9.8820, -0.5590, 0.0981, -10.0224, 0.0035, 0.0003, -0.0097, -0.1402, -0.0081, -0.9426, 0.0298, -0.0164, 0.0050, 1383, 50859, 0.0000, 0.0000, -1.0000, 0.0000
9.9020, -0.5590, 0.0981, -10.0224, 0.0035, 0.0003, -0.0097, -0.1410, -0.0076, -0.9451, 0.0306, -0.0054, 0.0058, 1384, 50859, 0.0000, 0.0000, -1.0000, 0.0000
9.9220, -0.5590, 0.0981, -10.0224, 0.0035, 0.0003, -0.0097, -0.1413, -0.0075, -0.9463, 0.0309, -0.0049, 0.0073, 1385, 50859, 0.0000, 0.0000, -1.0000, 0.0000
9.9420, -0.5590, 0.0981, -10.0224, 0.0035, 0.0003, -0.0097, -0.1416, -0.0074, -0.9472, 0.0309, -0.0060, 0.0070, 1386, 50859, 0.0000, 0.0000, -1.0000, 0.0000
9.9620, -0.5590, 0.0981, -10.0224, 0.0035, 0.0003, -0.0097, -0.1417, -0.0073, -0.9481, 0.0308, -0.0073, 0.0061, 1387, 50859, 0.0000, 0.0000, -1.0000, 0.0000
9.9820, -0.5590, 0.0981, -10.0224, 0.0035, 0.0003, -0.0097, -0.1421, -0.0072, -0.9492, 0.0315, -0.0071, 0.0054, 1388, 50859, 0.0000, 0.0000, -1.0000, 0.0000
10.0020, -0.5590, 0.0981, -10.0224, 0.0035, 0.0003, -0.0097, -0.1424, -0.0071, -0.9501, 0.0316, -0.0073, 0.0050, 1389, 50859, 0.0000, 0.0000, -1.0000, 0.0000
10.0220, -0.5590, 0.0981, -10.0224, 0.0035, 0.0003, -0.0097, -0.1425, -0.0071, -0.9510, 0.0311, -0.0090, 0.0047, 1390, 50859, 0.0007, 0.0007, -1.0003, 0.0000
10.0420, -0.5590, 0.0981, -10.0224, 0.0035, 0.0003, -0.0097, -0.1427, -0.0069, -0.9518, 0.0313, -0.0091, 0.0062, 1391, 50859, 0.0073, 0.0073, -1.0037, 0.0000
10.0620, -0.5590, 0.0981, -10.0224, 0.0035, 0.0003, -0.0097, -0.1429, -0.0068, -0.9526, 0.0317, -0.0092, 0.0073, 1392, 50859, 0.0140, 0.0140, -1.0070, 0.0000
10.0820, -0.5590, 0.0981, -10.0224, 0.0035, 0.0003, -0.0097, -0.1430, -0.0067, -0.9533, 0.0316, -0.0091, 0.0069, 1393, 50859, 0.0207, 0.0207, -1.0103, 0.0000
10.1020, -0.5590, 0.0981, -10.0224, 0.0035, 0.0003, -0.0097, -0.1431, -0.0068, -0.9538, 0.0314, -0.0093, 0.0063, 1394, 50859, 0.0273, 0.0273, -1.0137, 0.0000
10.1220, -0.5590, 0.0981, -10.0224, 0.0035, 0.0003, -0.0097, -0.1431, -0.0067, -0.9546, 0.0322, -0.0084, 0.0056, 1395, 50859, 0.0340, 0.0340, -1.0170, 0.0000
10.1420, -0.5590, 0.0981, -10.0224, 0.0035, 0.0003, -0.0097, -0.1433, -0.0067, -0.9553, 0.0322, -0.0089, 0.0058, 1396, 50859, 0.0407, 0.0407, -1.0203, 0.0000
10.1620, -0.5590, 0.0981, -10.0224, 0.0035, 0.0003, -0.0097, -0.1432, -0.0067, -0.9560, 0.0318, -0.0095, 0.0061, 1397, 50859, 0.0473, 0.0473, -1.0237, 0.0000
10.1820, -0.5590, 0.0981, -10.0224, 0.0035, 0.0003, -0.0097, -0.1431, -0.0066, -0.9568, 0.0324, -0.0097, 0.0074, 1398, 50859, 0.0540, 0.0540, -1.0270, 0.0000
10.2020, -0.5590, 0.0981, -10.0224, 0.0035, 0.0003, -0.0097, -0.1431, -0.0065, -0.9575, 0.0325, -0.0120, 0.0084, 1399, 50859, 0.0607, 0.0607, -1.0303, 0.0000
10.2220, -0.5590, 0.0981, -10.0224, 0.0035, 0.0003, -0.0097, -0.1430, -0.0065, -0.9585, 0.0327, -0.0121, 0.0088, 1400, 50859, 0.0673, 0.0673, -1.0337, 0.0000
10.2420, -0.5590, 0.0981, -10.0224, 0.0035, 0.0003, -0.0097, -0.1428, -0.0066, -0.9594, 0.0325, -0.0131, 0.0098, 1401, 50859, 0.0740, 0.0740, -1.0370, 0.0000
10.2620, -0.5590, 0.0981, -10.0224, 0.0035, 0.0003, -0.0097, -0.1425, -0.0065, -0.9603, 0.0328, -0.0157, 0.0106, 1402, 50859, 0.0807, 0.0807, -1.0403, 0.0000
10.2820, -0.5590, 0.0981, -10.0224, 0.0035, 0.0003, -0.0097, -0.1423, -0.0064, -0.9614, 0.0333, -0.0163, 0.0124, 1403, 50859, 0.0873, 0.0873, -1.0437, 0.0000
10.3020, -0.5590, 0.0981, -10.0224, 0.0035, 0.0003, -0.0097, -0.1419, -0.0063, -0.9624, 0.0329, -0.0185, 0.0144, 1404, 50859, 0.0940, 0.0940, -1.0470, 0.0000
10.3220, -0.5590, 0.0981, -10.0224, 0.0035, 0.0003, -0.0097, -0.1415, -0.0062, -0.9634, 0.0330, -0.0196, 0.0164, 1405, 50859, 0.1007, 0.1007, -1.0503, 0.0000
10.3420, -0.5590, 0.0981, -10.0224, 0.0035, 0.0003, -0.0097, -0.1410, -0.0060, -0.9645, 0.0331, -0.0225, 0.0182, 1406, 50859, 0.1073, 0.1073, -1.0537, 0.0000
10.3620, -0.5590, 0.0981, -10.0224, 0.0035, 0.0003, -0.0097, -0.1405, -0.0058, -0.9658, 0.0336, -0.0226, 0.0194, 1407, 50859, 0.1140, 0.1140, -1.0570, 0.0000
10.3820, -0.5590, 0.0981, -10.0224, 0.0035, 0.0003, -0.0097, -0.1399, -0.0056, -0.9670, 0.0336, -0.0240, 0.0205, 1408, 50859, 0.1207, 0.1207, -1.0603, 0.0000
10.4020, -0.5590, 0.0981, -10.0224, 0.0035, 0.0003, -0.0097, -0.1387, -0.0053, -0.9666, 0.0331, -0.0392, 0.0230, 1409, 50859, 0.1273, 0.1273, -1.0637, 0.0000
10.4220, -0.5590, 0.0981, -10.0224, 0.0035, 0.0003, -0.0097, -0.1384, -0.0049, -0.9693, 0.0340, -0.0272, 0.0252, 1410, 50859, 0.1340, 0.1340, -1.0670, 0.0000
10.4420, -0.5590, 0.0981, -10.0224, 0.0035, 0.0003, -0.0097, -0.1376, -0.0045, -0.9707, 0.0338, -0.0293, 0.0273, 1411, 50859, 0.1407, 0.1407, -1.0703, 0.0000
10.4620, -0.5590, 0.0981, -10.0224, 0.0035, 0.0003, -0.0097, -0.1365, -0.0040, -0.9720, 0.0338, -0.0308, 0.0287, 1412, 50859, 0.1473, 0.1473, -1.0737, 0.0000
10.4820, -0.5590, 0.0981, -10.0224, 0.0035, 0.0003, -0.0097, -0.1350, -0.0035, -0.9717, 0.0333, -0.0454, 0.0314, 1413, 50859, 0.1540, 0.1540, -1.0770, 0.0000
10.5020, -0.5590, 0.0981, -10.0224, 0.0035, 0.0003, -0.0097, -0.1342, -0.0026, -0.9748, 0.0342, -0.0341, 0.0320, 1414, 50859, 0.1607, 0.1607, -1.0803, 0.0000
10.5220, -0.5590, 0.0981, -10.0224, 0.0035, 0.0003, -0.0097, -0.1329, -0.0018, -0.9763, 0.0346, -0.0336, 0.0339, 1415, 50859, 0.1673, 0.1673, -1.0837, 0.0000
10.5420, -0.5590, 0.0981, -10.0224, 0.0035, 0.0003, -0.0097, -0.1311, -0.0012, -0.9760, 0.0334, -0.0489, 0.0369, 1416, 50859, 0.1740, 0.1740, -1.0870, 0.0000
10.5620, -0.5590, 0.0981, -10.0224, 0.0035, 0.0003, -0.0097, -0.1300, 0.0001, -0.9787, 0.0348, -0.0375, 0.0396, 1417, 50859, 0.1807, 0.1807, -1.0903, 0.0000
10.5820, -0.5590, 0.0981, -10.0224, 0.0035, 0.0003, -0.0097, -0.1283, 0.0012, -0.9801, 0.0348, -0.0381, 0.0430, 1418, 50859, 0.1873, 0.1873, -1.0937, 0.0000
10.6020, -0.5590, 0.0981, -10.0224, 0.0035, 0.0003, -0.0097, -0.1265, 0.0024, -0.9814, 0.0349, -0.0383, 0.0437, 1419, 50859, 0.1940, 0.1940, -1.0970, 0.0000
10.6220, -0.5590, 0.0981, -10.0224, 0.0035, 0.0003, -0.0097, -0.1243, 0.0036, -0.9809, 0.0347, -0.0518, 0.0460, 1420, 50859, 0.2007, 0.2007, -1.1003, 0.0000
10.6420, -0.5590, 0.0981, -10.0224, 0.0035, 0.0003, -0.0097, -0.1223, 0.0052, -0.9823, 0.0349, -0.0526, 0.0470, 1421, 50859, 0.2073, 0.2073, -1.1037, 0.0000
10.6620, -0.5590, 0.0981, -10.0224, 0.0035, 0.0003, -0.0097, -0.1206, 0.0069, -0.9852, 0.0357, -0.0397, 0.0478, 1422, 50859, 0.2140, 0.2140, -1.1070, 0.0000
10.6820, -0.5590, 0.0981, -10.0224, 0.0035, 0.0003, -0.0097, -0.1183, 0.0085, -0.9863, 0.0348, -0.0408, 0.0493, 1423, 50859, 0.2207, 0.2207, -1.1103, 0.0000
10.7020, -0.5590, 0.0981, -10.0224, 0.0035, 0.0003, -0.0097, -0.1155, 0.0105, -0.9860, 0.0355, -0.0536, 0.0522, 1424, 50859, 0.2273, 0.2273, -1.1137, 0.0000
10.7220, -0.5590, 0.0981, -10.0224, 0.0035, 0.0003, -0.0097, -0.1134, 0.0127, -0.9887, 0.0357, -0.0424, 0.0548, 1425, 50859, 0.2340, 0.2340, -1.1170, 0.0000
10.7420, -0.5590, 0.0981, -10.0224, 0.0035, 0.0003, -0.0097, -0.1107, 0.0150, -0.9899, 0.0359, -0.0442, 0.0553, 1426, 50859, 0.2407, 0.2407, -1.1203, 0.0000
10.7620, -0.5590, 0.0981, -10.0224, 0.0035, 0.0003, -0.0097, -0.1079, 0.0173, -0.9911, 0.0357, -0.0440, 0.0556, 1427, 50859, 0.2473, 0.2473, -1.1237, 0.0000
10.7820, -0.5590, 0.0981, -10.0224, 0.0035, 0.0003, -0.0097, -0.1046, 0.0198, -0.9908, 0.0356, -0.0573, 0.0559, 1428, 50859, 0.2540, 0.2540, -1.1270, 0.0000
10.8020, -0.5590, 0.0981, -10.0224, 0.0035, 0.0003, -0.0097, -0.1020, 0.0226, -0.9936, 0.0363, -0.0458, 0.0557, 1429, 50859, 0.2607, 0.2607, -1.1303, 0.0000
10.8220, -0.5590, 0.0981, -10.0224, 0.0035, 0.0003, -0.0097, -0.0989, 0.0255, -0.9951, 0.0359, -0.0448, 0.0552, 1430, 50859, 0.2673, 0.2673, -1.1337, 0.0000
10.8420, -0.5590, 0.0981, -10.0224, 0.0035, 0.0003, -0.0097, -0.0952, 0.0284, -0.9948, 0.0358, -0.0573, 0.0557, 1431, 50859, 0.2740, 0.2740, -1.1370, 0.0000
10.8620, -0.5590, 0.0981, -10.0224, 0.0035, 0.0003, -0.0097, -0.0921, 0.0318, -0.9976, 0.0364, -0.0462, 0.0568, 1432, 50859, 0.2807, 0.2807, -1.1403, 0.0000
10.8820, -0.5590, 0.0981, -10.0224, 0.0035, 0.0003, -0.0097, -0.0882, 0.0350, -0.9976, 0.0363, -0.0584, 0.0566, 1433, 50859, 0.2873, 0.2873, -1.1437, 0.0000
10.9020, -0.5590, 0.0981, -10.0224, 0.0035, 0.0003, -0.0097, -0.0849, 0.0387, -1.0008, 0.0366, -0.0459, 0.0559, 1434, 50859, 0.2940, 0.2940, -1.1470, 0.0000
10.9220, -0.5590, 0.0981, -10.0224, 0.0035, 0.0003, -0.0097, -0.0807, 0.0422, -1.0009, 0.0359, -0.0579, 0.0560, 1435, 50859, 0.3007, 0.3007, -1.1503, 0.0000
10.9420, -0.5590, 0.0981, -10.0224, 0.0035, 0.0003, -0.0097, -0.0767, 0.0462, -1.0025, 0.0365, -0.0567, 0.0554, 1436, 50859, 0.3073, 0.3073, -1.1537, 0.0000
10.9620, -0.5590, 0.0981, -10.0224, 0.0035, 0.0003, -0.0097, -0.0731, 0.0503, -1.0058, 0.0367, -0.0444, 0.0560, 1437, 50859, 0.3140, 0.3140, -1.1570, 0.0000
10.9820, -0.5590, 0.0981, -10.0224, 0.0035, 0.0003, -0.0097, -0.0686, 0.0544, -1.0059, 0.0363, -0.0571, 0.0565, 1438, 50859, 0.3207, 0.3207, -1.1603, 0.0000
11.0020, -0.5590, 0.0981, -10.0224, 0.0035, 0.0003, -0.0097, -0.0645, 0.0589, -1.0091, 0.0369, -0.0448, 0.0561, 1439, 50859, 0.3273, 0.3273, -1.1637, 0.0000
11.0220, -0.5590, 0.0981, -10.0224, 0.0035, 0.0003, -0.0097, -0.0597, 0.0631, -1.0094, 0.0359, -0.0564, 0.0552, 1440, 50859, 0.3340, 0.3340, -1.1670, 0.0000
11.0420, -0.5590, 0.0981, -10.0224, 0.0035, 0.0003, -0.0097, -0.0553, 0.0678, -1.0109, 0.0367, -0.0558, 0.0528, 1441, 50859, 0.3407, 0.3407, -1.1703, 0.0000
11.0620, -0.5590, 0.0981, -10.0224, 0.0035, 0.0003, -0.0097, -0.0510, 0.0726, -1.0138, 0.0368, -0.0410, 0.0521, 1442, 50859, 0.3473, 0.3473, -1.1737, 0.0000
11.0820, -0.5590, 0.0981, -10.0224, 0.0035, 0.0003, -0.0097, -0.0459, 0.0774, -1.0138, 0.0363, -0.0518, 0.0524, 1443, 50859, 0.3540, 0.3540, -1.1770, 0.0000
11.1020, -0.5590, 0.0981, -10.0224, 0.0035, 0.0003, -0.0097, -0.0411, 0.0825, -1.0149, 0.0371, -0.0530, 0.0535, 1444, 50859, 0.3607, 0.3607, -1.1803, 0.0000
11.1220, -0.5590, 0.0981, -10.0224, 0.0035, 0.0003, -0.0097, -0.0365, 0.0879, -1.0180, 0.0375, -0.0408, 0.0541, 1445, 50859, 0.3673, 0.3673, -1.1837, 0.0000
11.1420, -0.5590, 0.0981, -10.0224, 0.0035, 0.0003, -0.0097, -0.0315, 0.0932, -1.0193, 0.0374, -0.0398, 0.0532, 1446, 50859, 0.3740, 0.3740, -1.1870, 0.0000
11.1620, -0.5590, 0.0981, -10.0224, 0.0035, 0.0003, -0.0097, -0.0260, 0.0984, -1.0194, 0.0367, -0.0514, 0.0520, 1447, 50859, 0.3807, 0.3807, -1.1903, 0.0000
11.1820, -0.5590, 0.0981, -10.0224, 0.0035, 0.0003, -0.0097, -0.0211, 0.1041, -1.0224, 0.0374, -0.0384, 0.0499, 1448, 50859, 0.3873, 0.3873, -1.1937, 0.0000
11.2020, -0.5590, 0.0981, -10.0224, 0.0035, 0.0003, -0.0097, -0.0160, 0.1098, -1.0241, 0.0380, -0.0368, 0.0500, 1449, 50859, 0.3940, 0.3940, -1.1970, 0.0000
11.2220, -0.5590, 0.0981, -10.0224, 0.0035, 0.0003, -0.0097, -0.0107, 0.1157, -1.0258, 0.0373, -0.0360, 0.0489, 1450, 50859, 0.4007, 0.4007, -1.2003, 0.0000
11.2420, -0.5590, 0.0981, -10.0224, 0.0035, 0.0003, -0.0097, -0.0051, 0.1214, -1.0273, 0.0377, -0.0361, 0.0480, 1451, 50859, 0.4073, 0.4073, -1.2037, 0.0000
11.2620, -0.5590, 0.0981, -10.0224, 0.0035, 0.0003, -0.0097, 0.0006, 0.1274, -1.0276, 0.0376, -0.0474, 0.0473, 1452, 50859, 0.4140, 0.4140, -1.2070, 0.0000
11.2820, -0.5590, 0.0981, -10.0224, 0.0035, 0.0003, -0.0097, 0.0059, 0.1337, -1.0310, 0.0381, -0.0346, 0.0454, 1453, 50859, 0.4207, 0.4207, -1.2103, 0.0000
11.3020, -0.5590, 0.0981, -10.0224, 0.0035, 0.0003, -0.0097, 0.0115, 0.1397, -1.0330, 0.0380, -0.0336, 0.0435, 1454, 50859, 0.4273, 0.4273, -1.2137, 0.0000
11.3220, -0.5590, 0.0981, -10.0224, 0.0035, 0.0003, -0.0097, 0.0172, 0.1460, -1.0349, 0.0377, -0.0328, 0.0418, 1455, 50859, 0.4340, 0.4340, -1.2170, 0.0000
11.3420, -0.5590, 0.0981, -10.0224, 0.0035, 0.0003, -0.0097, 0.0234, 0.1524, -1.0354, 0.0382, -0.0444, 0.0412, 1456, 50859, 0.4407, 0.4407, -1.2203, 0.0000
11.3620, -0.5590, 0.0981, -10.0224, 0.0035, 0.0003, -0.0097, 0.0292, 0.1587, -1.0376, 0.0377, -0.0439, 0.0396, 1457, 50859, 0.4473, 0.4473, -1.2237, 0.0000
11.3820, -0.5590, 0.0981, -10.0224, 0.0035, 0.0003, -0.0097, 0.0347, 0.1653, -1.0414, 0.0380, -0.0314, 0.0368, 1458, 50859, 0.4540, 0.4540, -1.2270, 0.0000
11.4020, -0.5590, 0.0981, -10.0224, 0.0035, 0.0003, -0.0097, 0.0407, 0.1718, -1.0437, 0.0377, -0.0307, 0.0360, 1459, 50859, 0.4607, 0.4607, -1.2303, 0.0000
11.4220, -0.5590, 0.0981, -10.0224, 0.0035, 0.0003, -0.0097, 0.0470, 0.1784, -1.0444, 0.0373, -0.0416, 0.0357, 1460, 50859, 0.4673, 0.4673, -1.2337, 0.0000
11.4420, -0.5590, 0.0981, -10.0224, 0.0035, 0.0003, -0.0097, 0.0530, 0.1853, -1.0467, 0.0375, -0.0424, 0.0355, 1461, 50859, 0.4740, 0.4740, -1.2370, 0.0000
11.4620, -0.5590, 0.0981, -10.0224, 0.0035, 0.0003, -0.0097, 0.0590, 0.1920, -1.0491, 0.0370, -0.0415, 0.0359, 1462, 50859, 0.4807, 0.4807, -1.2403, 0.0000
11.4820, -0.5590, 0.0981, -10.0224, 0.0035, 0.0003, -0.0097, 0.0648, 0.1988, -1.0531, 0.0374, -0.0297, 0.0343, 1463, 50859, 0.4873, 0.4873, -1.2437, 0.0000
11.5020, -0.5590, 0.0981, -10.0224, 0.0035, 0.0003, -0.0097, 0.0713, 0.2055, -1.0539, 0.0370, -0.0411, 0.0333, 1464, 50859, 0.4940, 0.4940, -1.2470, 0.0000
11.5220, -0.5590, 0.0981, -10.0224, 0.0035, 0.0003, -0.0097, 0.0775, 0.2124, -1.0564, 0.0371, -0.0399, 0.0317, 1465, 50859, 0.5007, 0.5007, -1.2503, 0.0000
11.5420, -0.5590, 0.0981, -10.0224, 0.0035, 0.0003, -0.0097, 0.0836, 0.2194, -1.0590, 0.0374, -0.0397, 0.0306, 1466, 50859, 0.5073, 0.5073, -1.2537, 0.0000
11.5620, -0.5590, 0.0981, -10.0224, 0.0035, 0.0003, -0.0097, 0.0894, 0.2263, -1.0629, 0.0371, -0.0270, 0.0307, 1467, 50859, 0.5140, 0.5140, -1.2570, 0.0000
11.5820, -0.5590, 0.0981, -10.0224, 0.0035, 0.0003, -0.0097, 0.0958, 0.2333, -1.0655, 0.0371, -0.0266, 0.0300, 1468, 50859, 0.5207, 0.5207, -1.2603, 0.0000
11.6020, -0.5590, 0.0981, -10.0224, 0.0035, 0.0003, -0.0097, 0.1024, 0.2401, -1.0665, 0.0364, -0.0396, 0.0292, 1469, 50859, 0.5273, 0.5273, -1.2637, 0.0000
11.6220, -0.5590, 0.0981, -10.0224, 0.0035, 0.0003, -0.0097, 0.1087, 0.2472, -1.0694, 0.0369, -0.0374, 0.0276, 1470, 50859, 0.5340, 0.5340, -1.2670, 0.0000
11.6420, -0.5590, 0.0981, -10.0224, 0.0035, 0.0003, -0.0097, 0.1150, 0.2542, -1.0723, 0.0371, -0.0366, 0.0262, 1471, 50859, 0.5407, 0.5407, -1.2703, 0.0000
11.6620, -0.5590, 0.0981, -10.0224, 0.0035, 0.0003, -0.0097, 0.1211, 0.2608, -1.0745, 0.0363, -0.0285, 0.0188, 1472, 50859, 0.5473, 0.5473, -1.2737, 0.0000
11.6820, -0.5590, 0.0981, -10.0224, 0.0035, 0.0003, -0.0097, 0.1269, 0.2676, -1.0783, 0.0369, -0.0096, 0.0108, 1473, 50859, 0.5540, 0.5540, -1.2770, 0.0000
11.7020, -0.5590, 0.0981, -10.0224, 0.0035, 0.0003, -0.0097, 0.1333, 0.2744, -1.0797, 0.0366, -0.0188, 0.0076, 1474, 50859, 0.5607, 0.5607, -1.2803, 0.0000
11.7220, -0.5590, 0.0981, -10.0224, 0.0035, 0.0003, -0.0097, 0.1392, 0.2813, -1.0844, 0.0372, -0.0062, 0.0085, 1475, 50859, 0.5673, 0.5673, -1.2837, 0.0000
11.7420, -0.5590, 0.0981, -10.0224, 0.0035, 0.0003, -0.0097, 0.1454, 0.2882, -1.0877, 0.0370, -0.0069, 0.0088, 1476, 50859, 0.5740, 0.5740, -1.2870, 0.0000
11.7640, -0.5590, 0.0981, -10.0224, 0.0035, 0.0003, -0.0097, 0.1521, 0.2949, -1.0890, 0.0362, -0.0217, 0.0103, 1477, 50859, 0.5807, 0.5807, -1.2903, 0.0000
11.7840, -0.5590, 0.0981, -10.0224, 0.0035, 0.0003, -0.0097, 0.1578, 0.3019, -1.0937, 0.0370, -0.0105, 0.0125, 1478, 50859, 0.5880, 0.5880, -1.2940, 0.0000
11.8040, -0.5590, 0.0981, -10.0224, 0.0035, 0.0003, -0.0097, 0.1637, 0.3086, -1.0962, 0.0363, -0.0106, 0.0123, 1479, 50859, 0.5947, 0.5947, -1.2973, 0.0000
11.8240, -0.5590, 0.0981, -10.0224, 0.0035, 0.0003, -0.0097, 0.1697, 0.3151, -1.0988, 0.0363, -0.0086, 0.0116, 1480, 50859, 0.6013, 0.6013, -1.3007, 0.0000
11.8440, -0.5590, 0.0981, -10.0224, 0.0035, 0.0003, -0.0097, 0.1761, 0.3216, -1.1001, 0.0360, -0.0198, 0.0109, 1481, 50859, 0.6080, 0.6080, -1.3040, 0.0000
11.8640, -0.5590, 0.0981, -10.0224, 0.0035, 0.0003, -0.0097, 0.1820, 0.3281, -1.1029, 0.0361, -0.0215, 0.0106, 1482, 50859, 0.6147, 0.6147, -1.3073, 0.0000
11.8840, -0.5590, 0.0981, -10.0224, 0.0035, 0.0003, -0.0097, 0.1877, 0.3346, -1.1072, 0.0359, -0.0135, 0.0109, 1483, 50859, 0.6213, 0.6213, -1.3107, 0.0000
11.9040, -0.5590, 0.0981, -10.0224, 0.0035, 0.0003, -0.0097, 0.1938, 0.3411, -1.1086, 0.0358, -0.0254, 0.0108, 1484, 50859, 0.6280, 0.6280, -1.3140, 0.0000
11.9240, -0.5590, 0.0981, -10.0224, 0.0035, 0.0003, -0.0097, 0.1998, 0.3475, -1.1115, 0.0358, -0.0244, 0.0111, 1485, 50859, 0.6347, 0.6347, -1.3173, 0.0000
11.9440, -0.5590, 0.0981, -10.0224, 0.0035, 0.0003, -0.0097, 0.2054, 0.3536, -1.1143, 0.0352, -0.0252, 0.0114, 1486, 50859, 0.6413, 0.6413, -1.3207, 0.0000
11.9640, -0.5590, 0.0981, -10.0224, 0.0035, 0.0003, -0.0097, 0.2108, 0.3600, -1.1183, 0.0358, -0.0134, 0.0097, 1487, 50859, 0.6480, 0.6480, -1.3240, 0.0000
11.9840, -0.5590, 0.0981, -10.0224, 0.0035, 0.0003, -0.0097, 0.2167, 0.3658, -1.1192, 0.0352, -0.0192, 0.0054, 1488, 50859, 0.6547, 0.6547, -1.3273, 0.0000
12.0040, -0.5590, 0.0981, -10.0224, 0.0035, 0.0003, -0.0097, 0.2222, 0.3719, -1.1217, 0.0351, -0.0166, 0.0041, 1489, 50859, 0.6613, 0.6613, -1.3307, 0.0000
12.0240, -0.5590, 0.0981, -10.0224, 0.0035, 0.0003, -0.0097, 0.2276, 0.3782, -1.1258, 0.0347, -0.0073, 0.0063, 1490, 50859, 0.6680, 0.6680, -1.3340, 0.0000
12.0440, -0.5590, 0.0981, -10.0224, 0.0035, 0.0003, -0.0097, 0.2336, 0.3843, -1.1272, 0.0346, -0.0211, 0.0091, 1491, 50859, 0.6747, 0.6747, -1.3373, 0.0000
12.0640, -0.5590, 0.0981, -10.0224, 0.0035, 0.0003, -0.0097, 0.2390, 0.3903, -1.1315, 0.0340, -0.0122, 0.0103, 1492, 50859, 0.6813, 0.6813, -1.3407, 0.0000
12.0840, -0.5590, 0.0981, -10.0224, 0.0035, 0.0003, -0.0097, 0.2448, 0.3960, -1.1325, 0.0336, -0.0242, 0.0101, 1493, 50859, 0.6880, 0.6880, -1.3440, 0.0000
12.1040, -0.5590, 0.0981, -10.0224, 0.0035, 0.0003, -0.0097, 0.2498, 0.4018, -1.1362, 0.0332, -0.0110, 0.0063, 1494, 50859, 0.6947, 0.6947, -1.3473, 0.0000
12.1240, -0.5590, 0.0981, -10.0224, 0.0035, 0.0003, -0.0097, 0.2552, 0.4075, -1.1388, 0.0329, -0.0096, 0.0061, 1495, 50859, 0.7013, 0.7013, -1.3507, 0.0000
12.1440, -0.5590, 0.0981, -10.0224, 0.0035, 0.0003, -0.0097, 0.2606, 0.4133, -1.1414, 0.0321, -0.0112, 0.0075, 1496, 50859, 0.7080, 0.7080, -1.3540, 0.0000
12.1640, -0.5590, 0.0981, -10.0224, 0.0035, 0.0003, -0.0097, 0.2662, 0.4192, -1.1441, 0.0321, -0.0137, 0.0112, 1497, 50859, 0.7147, 0.7147, -1.3573, 0.0000
12.1840, -0.5590, 0.0981, -10.0224, 0.0035, 0.0003, -0.0097, 0.2716, 0.4249, -1.1466, 0.0318, -0.0166, 0.0132, 1498, 50859, 0.7213, 0.7213, -1.3607, 0.0000
12.2040, -0.5590, 0.0981, -10.0224, 0.0035, 0.0003, -0.0097, 0.2770, 0.4306, -1.1494, 0.0317, -0.0181, 0.0139, 1499, 50859, 0.7280, 0.7280, -1.3640, 0.0000
12.2240, -0.5590, 0.0981, -10.0224, 0.0035, 0.0003, -0.0097, 0.2824, 0.4360, -1.1521, 0.0312, -0.0188, 0.0154, 1500, 50859, 0.7347, 0.7347, -1.3673, 0.0000
12.2440, -0.5590, 0.0981, -10.0224, 0.0035, 0.0003, -0.0097, 0.2881, 0.4417, -1.1533, 0.0305, -0.0313, 0.0169, 1501, 50859, 0.7413, 0.7413, -1.3707, 0.0000
12.2640, -0.5590, 0.0981, -10.0224, 0.0035, 0.0003, -0.0097, 0.2930, 0.4472, -1.1573, 0.0308, -0.0184, 0.0162, 1502, 50859, 0.7480, 0.7480, -1.3740, 0.0000
12.2840, -0.5590, 0.0981, -10.0224, 0.0035, 0.0003, -0.0097, 0.2982, 0.4522, -1.1591, 0.0300, -0.0141, 0.0114, 1503, 50859, 0.7547, 0.7547, -1.3773, 0.0000
12.3040, -0.5590, 0.0981, -10.0224, 0.0035, 0.0003, -0.0097, 0.3035, 0.4577, -1.1613, 0.0299, -0.0129, 0.0097, 1504, 50859, 0.7613, 0.7613, -1.3807, 0.0000
12.3240, -0.5590, 0.0981, -10.0224, 0.0035, 0.0003, -0.0097, 0.3088, 0.4632, -1.1639, 0.0296, -0.0143, 0.0117, 1505, 50859, 0.7680, 0.7680, -1.3840, 0.0000
12.3440, -0.5590, 0.0981, -10.0224, 0.0035, 0.0003, -0.0097, 0.3142, 0.4687, -1.1665, 0.0291, -0.0161, 0.0132, 1506, 50859, 0.7747, 0.7747, -1.3873, 0.0000
12.3640, -0.5590, 0.0981, -10.0224, 0.0035, 0.0003, -0.0097, 0.3196, 0.4741, -1.1692, 0.0294, -0.0156, 0.0141, 1507, 50859, 0.7813, 0.7813, -1.3907, 0.0000
12.3840, -0.5590, 0.0981, -10.0224, 0.0035, 0.0003, -0.0097, 0.3251, 0.4790, -1.1695, 0.0288, -0.0244, 0.0107, 1508, 50859, 0.7880, 0.7880, -1.3940, 0.0000
12.4040, -0.5590, 0.0981, -10.0224, 0.0035, 0.0003, -0.0097, 0.3299, 0.4844, -1.1733, 0.0290, -0.0084, 0.0060, 1509, 50859, 0.7947, 0.7947, -1.3973, 0.0000
12.4240, -0.5590, 0.0981, -10.0224, 0.0035, 0.0003, -0.0097, 0.3350, 0.4894, -1.1754, 0.0290, -0.0055, 0.0041, 1510, 50859, 0.8013, 0.8013, -1.4007, 0.0000
12.4440, -0.5590, 0.0981, -10.0224, 0.0035, 0.0003, -0.0097, 0.3403, 0.4947, -1.1778, 0.0282, -0.0061, 0.0059, 1511, 50859, 0.8080, 0.8080, -1.4040, 0.0000
12.4640, -0.5590, 0.0981, -10.0224, 0.0035, 0.0003, -0.0097, 0.3456, 0.5000, -1.1803, 0.0282, -0.0071, 0.0081, 1512, 50859, 0.8147, 0.8147, -1.4073, 0.0000
12.4840, -0.5590, 0.0981, -10.0224, 0.0035, 0.0003, -0.0097, 0.3505, 0.5050, -1.1824, 0.0277, -0.0070, 0.0073, 1513, 50859, 0.8213, 0.8213, -1.4107, 0.0000
12.5040, -0.5590, 0.0981, -10.0224, 0.0035, 0.0003, -0.0097, 0.3559, 0.5101, -1.1849, 0.0277, -0.0091, 0.0084, 1514, 50859, 0.8280, 0.8280, -1.4140, 0.0000
12.5240, -0.5590, 0.0981, -10.0224, 0.0035, 0.0003, -0.0097, 0.3610, 0.5151, -1.1874, 0.0269, -0.0119, 0.0118, 1515, 50859, 0.8347, 0.8347, -1.4173, 0.0000
12.5440, -0.5590, 0.0981, -10.0224, 0.0035, 0.0003, -0.0097, 0.3663, 0.5202, -1.1899, 0.0270, -0.0137, 0.0130, 1516, 50859, 0.8413, 0.8413, -1.4207, 0.0000
12.5640, -0.5590, 0.0981, -10.0224, 0.0035, 0.0003, -0.0097, 0.3711, 0.5250, -1.1922, 0.0267, -0.0122, 0.0103, 1517, 50859, 0.8480, 0.8480, -1.4240, 0.0000
12.5840, -0.5590, 0.0981, -10.0224, 0.0035, 0.0003, -0.0097, 0.3761, 0.5297, -1.1946, 0.0260, -0.0123, 0.0100, 1518, 50859, 0.8547, 0.8547, -1.4273, 0.0000
12.6040, -0.5590, 0.0981, -10.0224, 0.0035, 0.0003, -0.0097, 0.3813, 0.5348, -1.1973, 0.0259, -0.0158, 0.0135, 1519, 50859, 0.8613, 0.8613, -1.4307, 0.0000
12.6240, -0.5590, 0.0981, -10.0224, 0.0035, 0.0003, -0.0097, 0.3864, 0.5397, -1.1999, 0.0256, -0.0192, 0.0171, 1520, 50859, 0.8680, 0.8680, -1.4340, 0.0000
12.6440, -0.5590, 0.0981, -10.0224, 0.0035, 0.0003, -0.0097, 0.3913, 0.5447, -1.2027, 0.0256, -0.0199, 0.0184, 1521, 50859, 0.8747, 0.8747, -1.4373, 0.0000
12.6640, -0.5590, 0.0981, -10.0224, 0.0035, 0.0003, -0.0097, 0.3963, 0.5492, -1.2047, 0.0251, -0.0166, 0.0159, 1522, 50859, 0.8813, 0.8813, -1.4407, 0.0000
12.6840, -0.5590, 0.0981, -10.0224, 0.0035, 0.0003, -0.0097, 0.4014, 0.5538, -1.2055, 0.0247, -0.0247, 0.0132, 1523, 50859, 0.8880, 0.8880, -1.4440, 0.0000
12.7040, -0.5590, 0.0981, -10.0224, 0.0035, 0.0003, -0.0097, 0.4060, 0.5588, -1.2098, 0.0245, -0.0129, 0.0136, 1524, 50859, 0.8947, 0.8947, -1.4473, 0.0000
12.7240, -0.5590, 0.0981, -10.0224, 0.0035, 0.0003, -0.0097, 0.4110, 0.5637, -1.2126, 0.0240, -0.0172, 0.0187, 1525, 50859, 0.9013, 0.9013, -1.4507, 0.0000
12.7440, -0.5590, 0.0981, -10.0224, 0.0035, 0.0003, -0.0097, 0.4163, 0.5688, -1.2156, 0.0239, -0.0207, 0.0242, 1526, 50859, 0.9080, 0.9080, -1.4540, 0.0000
12.7640, -0.5590, 0.0981, -10.0224, 0.0035, 0.0003, -0.0097, 0.4215, 0.5736, -1.2184, 0.0234, -0.0246, 0.0276, 1527, 50859, 0.9147, 0.9147, -1.4573, 0.0000
12.7840, -0.5590, 0.0981, -10.0224, 0.0035, 0.0003, -0.0097, 0.4266, 0.5784, -1.2215, 0.0231, -0.0284, 0.0297, 1528, 50859, 0.9213, 0.9213, -1.4607, 0.0000
12.8040, -0.5590, 0.0981, -10.0224, 0.0035, 0.0003, -0.0097, 0.4317, 0.5835, -1.2248, 0.0232, -0.0303, 0.0325, 1529, 50859, 0.9280, 0.9280, -1.4640, 0.0000
12.8240, -0.5590, 0.0981, -10.0224, 0.0035, 0.0003, -0.0097, 0.4369, 0.5884, -1.2279, 0.0231, -0.0324, 0.0349, 1530, 50859, 0.9347, 0.9347, -1.4673, 0.0000
12.8440, -0.5590, 0.0981, -10.0224, 0.0035, 0.0003, -0.0097, 0.4426, 0.5934, -1.2297, 0.0220, -0.0467, 0.0377, 1531, 50859, 0.9413, 0.9413, -1.4707, 0.0000
12.8640, -0.5590, 0.0981, -10.0224, 0.0035, 0.0003, -0.0097, 0.4475, 0.5987, -1.2342, 0.0225, -0.0367, 0.0394, 1532, 50859, 0.9480, 0.9480, -1.4740, 0.0000
12.8840, -0.5590, 0.0981, -10.0224, 0.0035, 0.0003, -0.0097, 0.4526, 0.6037, -1.2369, 0.0220, -0.0345, 0.0394, 1533, 50859, 0.9547, 0.9547, -1.4773, 0.0000
12.9040, -0.5590, 0.0981, -10.0224, 0.0035, 0.0003, -0.0097, 0.4581, 0.6089, -1.2398, 0.0218, -0.0359, 0.0400, 1534, 50859, 0.9613, 0.9613, -1.4807, 0.0000
12.9240, -0.5590, 0.0981, -10.0224, 0.0035, 0.0003, -0.0097, 0.4635, 0.6142, -1.2429, 0.0216, -0.0380, 0.0415, 1535, 50859, 0.9680, 0.9680, -1.4840, 0.0000
12.9440, -0.5590, 0.0981, -10.0224, 0.0035, 0.0003, -0.0097, 0.4689, 0.6197, -1.2464, 0.0214, -0.0386, 0.0432, 1536, 50859, 0.9747, 0.9747, -1.4873, 0.0000
12.9640, -0.5590, 0.0981, -10.0224, 0.0035, 0.0003, -0.0097, 0.4746, 0.6252, -1.2493, 0.0212, -0.0377, 0.0423, 1537, 50859, 0.9813, 0.9813, -1.4907, 0.0000
12.9840, -0.5590, 0.0981, -10.0224, 0.0035, 0.0003, -0.0097, 0.4800, 0.6304, -1.2519, 0.0208, -0.0346, 0.0365, 1538, 50859, 0.9880, 0.9880, -1.4940, 0.0000
13.0040, -0.5590, 0.0981, -10.0224, 0.0035, 0.0003, -0.0097, 0.4855, 0.6358, -1.2544, 0.0205, -0.0299, 0.0313, 1539, 50859, 0.9947, 0.9947, -1.4973, 0.0000
13.0240, -0.5590, 0.0981, -10.0224, 0.0035, 0.0003, -0.0097, 0.4912, 0.6416, -1.2574, 0.0201, -0.0313, 0.0320, 1540, 50859, 1.0000, 1.0000, -1.5000, 0.0000
13.0440, -0.5590, 0.0981, -10.0224, 0.0035, 0.0003, -0.0097, 0.4971, 0.6473, -1.2603, 0.0198, -0.0336, 0.0349, 1541, 50859, 1.0000, 1.0000, -1.5000, 0.0000
13.0640, -0.5590, 0.0981, -10.0224, 0.0035, 0.0003, -0.0097, 0.5032, 0.6533, -1.2635, 0.0202, -0.0363, 0.0374, 1542, 50859, 1.0000, 1.0000, -1.5000, 0.0000
13.0840, -0.5590, 0.0981, -10.0224, 0.0035, 0.0003, -0.0097, 0.5095, 0.6592, -1.2650, 0.0195, -0.0518, 0.0404, 1543, 50859, 1.0000, 1.0000, -1.5000, 0.0000
13.1040, -0.5590, 0.0981, -10.0224, 0.0035, 0.0003, -0.0097, 0.5152, 0.6651, -1.2695, 0.0195, -0.0418, 0.0422, 1544, 50859, 1.0000, 1.0000, -1.5000, 0.0000
13.1240, -0.5590, 0.0981, -10.0224, 0.0035, 0.0003, -0.0097, 0.5215, 0.6713, -1.2727, 0.0192, -0.0419, 0.0426, 1545, 50859, 1.0000, 1.0000, -1.5000, 0.0000
13.1440, -0.5590, 0.0981, -10.0224, 0.0035, 0.0003, -0.0097, 0.5278, 0.6772, -1.2745, 0.0186, -0.0559, 0.0437, 1546, 50859, 1.0000, 1.0000, -1.5000, 0.0000
13.1640, -0.5590, 0.0981, -10.0224, 0.0035, 0.0003, -0.0097, 0.5342, 0.6835, -1.2777, 0.0186, -0.0569, 0.0433, 1547, 50859, 1.0000, 1.0000, -1.5000, 0.0000
13.1840, -0.5590, 0.0981, -10.0224, 0.0035, 0.0003, -0.0097, 0.5403, 0.6898, -1.2827, 0.0180, -0.0424, 0.0428, 1548, 50859, 1.0000, 1.0000, -1.5000, 0.0000
13.2040, -0.5590, 0.0981, -10.0224, 0.0035, 0.0003, -0.0097, 0.5465, 0.6959, -1.2859, 0.0173, -0.0441, 0.0411, 1549, 50859, 1.0000, 1.0000, -1.5000, 0.0000
13.2240, -0.5590, 0.0981, -10.0224, 0.0035, 0.0003, -0.0097, 0.5535, 0.7025, -1.2877, 0.0167, -0.0554, 0.0415, 1550, 50859, 1.0000, 1.0000, -1.5000, 0.0000
13.2440, -0.5590, 0.0981, -10.0224, 0.0035, 0.0003, -0.0097, 0.5602, 0.7089, -1.2908, 0.0164, -0.0555, 0.0418, 1551, 50859, 1.0000, 1.0000, -1.5000, 0.0000
13.2640, -0.5590, 0.0981, -10.0224, 0.0035, 0.0003, -0.0097, 0.5669, 0.7153, -1.2942, 0.0159, -0.0546, 0.0405, 1552, 50859, 1.0000, 1.0000, -1.5000, 0.0000
13.2840, -0.5590, 0.0981, -10.0224, 0.0035, 0.0003, -0.0097, 0.5735, 0.7222, -1.2974, 0.0164, -0.0532, 0.0396, 1553, 50859, 1.0000, 1.0000, -1.5000, 0.0000
13.3040, -0.5590, 0.0981, -10.0224, 0.0035, 0.0003, -0.0097, 0.5800, 0.7287, -1.3018, 0.0158, -0.0413, 0.0396, 1554, 50859, 1.0000, 1.0000, -1.5000, 0.0000
13.3240, -0.5590, 0.0981, -10.0224, 0.0035, 0.0003, -0.0097, 0.5874, 0.7355, -1.3034, 0.0152, -0.0505, 0.0402, 1555, 50859, 1.0000, 1.0000, -1.5000, 0.0000
13.3440, -0.5590, 0.0981, -10.0224, 0.0035, 0.0003, -0.0097, 0.5938, 0.7423, -1.3074, 0.0154, -0.0355, 0.0362, 1556, 50859, 1.0000, 1.0000, -1.5000, 0.0000
13.3640, -0.5590, 0.0981, -10.0224, 0.0035, 0.0003, -0.0097, 0.6006, 0.7486, -1.3097, 0.0143, -0.0277, 0.0279, 1557, 50859, 1.0000, 1.0000, -1.5000, 0.0000
13.3840, -0.5590, 0.0981, -10.0224, 0.0035, 0.0003, -0.0097, 0.6074, 0.7552, -1.3120, 0.0145, -0.0233, 0.0220, 1558, 50859, 1.0000, 1.0000, -1.5000, 0.0000
13.4040, -0.5590, 0.0981, -10.0224, 0.0035, 0.0003, -0.0097, 0.6145, 0.7620, -1.3145, 0.0139, -0.0228, 0.0201, 1559, 50859, 1.0000, 1.0000, -1.5000, 0.0000
13.4240, -0.5590, 0.0981, -10.0224, 0.0035, 0.0003, -0.0097, 0.6215, 0.7689, -1.3173, 0.0141, -0.0213, 0.0194, 1560, 50859, 1.0000, 1.0000, -1.5000, 0.0000
13.4440, -0.5590, 0.0981, -10.0224, 0.0035, 0.0003, -0.0097, 0.6289, 0.7755, -1.3183, 0.0132, -0.0296, 0.0178, 1561, 50859, 1.0000, 1.0000, -1.5000, 0.0000
13.4640, -0.5590, 0.0981, -10.0224, 0.0035, 0.0003, -0.0097, 0.6362, 0.7824, -1.3210, 0.0132, -0.0263, 0.0158, 1562, 50859, 1.0000, 1.0000, -1.5000, 0.0000
13.4840, -0.5590, 0.0981, -10.0224, 0.0035, 0.0003, -0.0097, 0.6428, 0.7893, -1.3246, 0.0134, -0.0144, 0.0141, 1563, 50859, 1.0000, 1.0000, -1.5000, 0.0000
13.5040, -0.5590, 0.0981, -10.0224, 0.0035, 0.0003, -0.0097, 0.6501, 0.7957, -1.3258, 0.0120, -0.0210, 0.0137, 1564, 50859, 1.0000, 1.0000, -1.5000, 0.0000
13.5240, -0.5590, 0.0981, -10.0224, 0.0035, 0.0003, -0.0097, 0.6567, 0.8025, -1.3292, 0.0124, -0.0087, 0.0119, 1565, 50859, 1.0000, 1.0000, -1.5000, 0.0000
13.5440, -0.5590, 0.0981, -10.0224, 0.0035, 0.0003, -0.0097, 0.6638, 0.8092, -1.3301, 0.0122, -0.0170, 0.0108, 1566, 50859, 1.0000, 1.0000, -1.5000, 0.0000
13.5640, -0.5590, 0.0981, -10.0224, 0.0035, 0.0003, -0.0097, 0.6707, 0.8156, -1.3325, 0.0116, -0.0137, 0.0085, 1567, 50859, 1.0000, 1.0000, -1.5000, 0.0000
13.5840, -0.5590, 0.0981, -10.0224, 0.0035, 0.0003, -0.0097, 0.6771, 0.8220, -1.3359, 0.0116, -0.0004, 0.0051, 1568, 50859, 1.0000, 1.0000, -1.5000, 0.0000
13.6040, -0.5590, 0.0981, -10.0224, 0.0035, 0.0003, -0.0097, 0.6841, 0.8283, -1.3370, 0.0114, -0.0096, 0.0024, 1569, 50859, 1.0000, 1.0000, -1.5000, 0.0000
13.6240, -0.5590, 0.0981, -10.0224, 0.0035, 0.0003, -0.0097, 0.6902, 0.8345, -1.3407, 0.0117, 0.0032, -0.0004, 1570, 50859, 1.0000, 1.0000, -1.5000, 0.0000
13.6440, -0.5590, 0.0981, -10.0224, 0.0035, 0.0003, -0.0097, 0.6973, 0.8405, -1.3418, 0.0109, -0.0030, -0.0034, 1571, 50859, 1.0000, 1.0000, -1.5000, 0.0000
13.6640, -0.5590, 0.0981, -10.0224, 0.0035, 0.0003, -0.0097, 0.7036, 0.8465, -1.3441, 0.0102, -0.0012, -0.0056, 1572, 50859, 1.0000, 1.0000, -1.5000, 0.0000
13.6840, -0.5590, 0.0981, -10.0224, 0.0035, 0.0003, -0.0097, 0.7099, 0.8525, -1.3465, 0.0106, 0.0013, -0.0085, 1573, 50859, 1.0000, 1.0000, -1.5000, 0.0000
13.7040, -0.5590, 0.0981, -10.0224, 0.0035, 0.0003, -0.0097, 0.7156, 0.8582, -1.3502, 0.0104, 0.0127, -0.0102, 1574, 50859, 1.0000, 1.0000, -1.5000, 0.0000
13.7240, -0.5590, 0.0981, -10.0224, 0.0035, 0.0003, -0.0097, 0.7221, 0.8639, -1.3513, 0.0097, 0.0058, -0.0119, 1575, 50859, 1.0000, 1.0000, -1.5000, 0.0000
13.7440, -0.5590, 0.0981, -10.0224, 0.0035, 0.0003, -0.0097, 0.7281, 0.8695, -1.3539, 0.0105, 0.0079, -0.0135, 1576, 50859, 1.0000, 1.0000, -1.5000, 0.0000
13.7560, -0.5590, 0.0981, -10.0224, 0.0035, 0.0003, -0.0097, 0.7337, 0.8749, -1.3560, 0.0097, 0.0086, -0.0136, 1577, 50859, 1.0000, 1.0000, -1.5000, 0.0000
13.7760, -0.5590, 0.0981, -10.0224, 0.0035, 0.0003, -0.0097, 0.7395, 0.8801, -1.3585, 0.0094, 0.0112, -0.0152, 1578, 50859, 1.0000, 1.0000, -1.5000, 0.0000
13.7960, -0.5590, 0.0981, -10.0224, 0.0035, 0.0003, -0.0097, 0.7448, 0.8852, -1.3606, 0.0099, 0.0147, -0.0193, 1579, 50859, 1.0000, 1.0000, -1.5000, 0.0000
13.8160, -0.5590, 0.0981, -10.0224, 0.0035, 0.0003, -0.0097, 0.7498, 0.8899, -1.3621, 0.0104, 0.0221, -0.0274, 1580, 50859, 1.0000, 1.0000, -1.5000, 0.0000
13.8360, -0.5590, 0.0981, -10.0224, 0.0035, 0.0003, -0.0097, 0.7550, 0.8944, -1.3637, 0.0105, 0.0267, -0.0335, 1581, 50859, 1.0000, 1.0000, -1.5000, 0.0000
13.8550, -0.5590, 0.0981, -10.0224, 0.0035, 0.0003, -0.0097, 0.7598, 0.8991, -1.3655, 0.0104, 0.0267, -0.0337, 1582, 50859, 1.0000, 1.0000, -1.5000, 0.0000
13.8750, -0.5590, 0.0981, -10.0224, 0.0035, 0.0003, -0.0097, 0.7646, 0.9035, -1.3677, 0.0105, 0.0273, -0.0335, 1583, 50859, 1.0000, 1.0000, -1.5000, 0.0000
13.8950, -0.5590, 0.0981, -10.0224, 0.0035, 0.0003, -0.0097, 0.7691, 0.9076, -1.3694, 0.0103, 0.0266, -0.0325, 1584, 50859, 1.0000, 1.0000, -1.5000, 0.0000
13.9170, -0.5590, 0.0981, -10.0224, 0.0035, 0.0003, -0.0097, 0.7736, 0.9115, -1.3713, 0.0096, 0.0265, -0.0321, 1585, 50859, 1.0000, 1.0000, -1.5000, 0.0000
13.9370, -0.5590, 0.0981, -10.0224, 0.0035, 0.0003, -0.0097, 0.7778, 0.9153, -1.3733, 0.0099, 0.0257, -0.0323, 1586, 50859, 1.0000, 1.0000, -1.5000, 0.0000
13.9570, -0.5590, 0.0981, -10.0224, 0.0035, 0.0003, -0.0097, 0.7815, 0.9188, -1.3751, 0.0102, 0.0258, -0.0310, 1587, 50859, 1.0000, 1.0000, -1.5000, 0.0000
13.9770, -0.5590, 0.0981, -10.0224, 0.0035, 0.0003, -0.0097, 0.7855, 0.9221, -1.3771, 0.0094, 0.0248, -0.0310, 1588, 50859, 1.0000, 1.0000, -1.5000, 0.0000
13.9970, -0.5590, 0.0981, -10.0224, 0.0035, 0.0003, -0.0097, 0.7889, 0.9252, -1.3790, 0.0089, 0.0256, -0.0311, 1589, 50859, 1.0000, 1.0000, -1.5000, 0.0000
14.0170, -0.5590, 0.0981, -10.0224, 0.0035, 0.0003, -0.0097, 0.7917, 0.9281, -1.3823, 0.0093, 0.0361, -0.0307, 1590, 50859, 1.0000, 1.0000, -1.5000, 0.0000
14.0370, -0.5590, 0.0981, -10.0224, 0.0035, 0.0003, -0.0097, 0.7955, 0.9309, -1.3828, 0.0089, 0.0246, -0.0310, 1591, 50859, 1.0000, 1.0000, -1.5000, 0.0000
14.0570, -0.5590, 0.0981, -10.0224, 0.0035, 0.0003, -0.0097, 0.7977, 0.9334, -1.3859, 0.0088, 0.0344, -0.0303, 1592, 50859, 1.0000, 1.0000, -1.5000, 0.0000
14.0770, -0.5590, 0.0981, -10.0224, 0.0035, 0.0003, -0.0097, 0.8006, 0.9358, -1.3879, 0.0088, 0.0354, -0.0294, 1593, 50859, 1.0000, 1.0000, -1.5000, 0.0000
14.0970, -0.5590, 0.0981, -10.0224, 0.0035, 0.0003, -0.0097, 0.8030, 0.9380, -1.3898, 0.0093, 0.0353, -0.0278, 1594, 50859, 1.0000, 1.0000, -1.5000, 0.0000
14.1170, -0.5590, 0.0981, -10.0224, 0.0035, 0.0003, -0.0097, 0.8060, 0.9401, -1.3901, 0.0084, 0.0219, -0.0273, 1595, 50859, 1.0000, 1.0000, -1.5000, 0.0000
14.1370, -0.5590, 0.0981, -10.0224, 0.0035, 0.0003, -0.0097, 0.8079, 0.9420, -1.3934, 0.0088, 0.0312, -0.0256, 1596, 50859, 1.0000, 1.0000, -1.5000, 0.0000
14.1570, -0.5590, 0.0981, -10.0224, 0.0035, 0.0003, -0.0097, 0.8099, 0.9438, -1.3951, 0.0085, 0.0300, -0.0236, 1597, 50859, 1.0000, 1.0000, -1.5000, 0.0000
14.1770, -0.5590, 0.0981, -10.0224, 0.0035, 0.0003, -0.0097, 0.8124, 0.9454, -1.3952, 0.0078, 0.0168, -0.0208, 1598, 50859, 1.0000, 1.0000, -1.5000, 0.0000
14.1970, -0.5590, 0.0981, -10.0224, 0.0035, 0.0003, -0.0097, 0.8138, 0.9471, -1.3982, 0.0080, 0.0282, -0.0179, 1599, 50859, 1.0000, 1.0000, -1.5000, 0.0000
14.2170, -0.5590, 0.0981, -10.0224, 0.0035, 0.0003, -0.0097, 0.8155, 0.9484, -1.3995, 0.0070, 0.0250, -0.0161, 1600, 50859, 1.0000, 1.0000, -1.5000, 0.0000
14.2370, -0.5590, 0.0981, -10.0224, 0.0035, 0.0003, -0.0097, 0.8176, 0.9496, -1.3993, 0.0070, 0.0131, -0.0149, 1601, 50859, 1.0000, 1.0000, -1.5000, 0.0000
14.2570, -0.5590, 0.0981, -10.0224, 0.0035, 0.0003, -0.0097, 0.8185, 0.9507, -1.4020, 0.0070, 0.0225, -0.0134, 1602, 50859, 1.0000, 1.0000, -1.5000, 0.0000
14.2770, -0.5590, 0.0981, -10.0224, 0.0035, 0.0003, -0.0097, 0.8198, 0.9516, -1.4032, 0.0064, 0.0213, -0.0132, 1603, 50859, 1.0000, 1.0000, -1.5000, 0.0000
14.2970, -0.5590, 0.0981, -10.0224, 0.0035, 0.0003, -0.0097, 0.8213, 0.9526, -1.4045, 0.0063, 0.0210, -0.0128, 1604, 50859, 1.0000, 1.0000, -1.5000, 0.0000
14.3170, -0.5590, 0.0981, -10.0224, 0.0035, 0.0003, -0.0097, 0.8223, 0.9533, -1.4057, 0.0061, 0.0203, -0.0122, 1605, 50859, 1.0000, 1.0000, -1.5000, 0.0000
14.3370, -0.5590, 0.0981, -10.0224, 0.0035, 0.0003, -0.0097, 0.8232, 0.9540, -1.4072, 0.0063, 0.0182, -0.0112, 1606, 50859, 1.0000, 1.0000, -1.5000, 0.0000
14.3570, -0.5590, 0.0981, -10.0224, 0.0035, 0.0003, -0.0097, 0.8241, 0.9546, -1.4085, 0.0059, 0.0173, -0.0106, 1607, 50859, 1.0000, 1.0000, -1.5000, 0.0000
14.3770, -0.5590, 0.0981, -10.0224, 0.0035, 0.0003, -0.0097, 0.8254, 0.9551, -1.4082, 0.0056, 0.0024, -0.0093, 1608, 50859, 1.0000, 1.0000, -1.5000, 0.0000
14.3970, -0.5590, 0.0981, -10.0224, 0.0035, 0.0003, -0.0097, 0.8259, 0.9557, -1.4111, 0.0054, 0.0131, -0.0088, 1609, 50859, 1.0000, 1.0000, -1.5000, 0.0000
14.4170, -0.5590, 0.0981, -10.0224, 0.0035, 0.0003, -0.0097, 0.8269, 0.9559, -1.4109, 0.0051, 0.0003, -0.0082, 1610, 50859, 1.0000, 1.0000, -1.5000, 0.0000
14.4370, -0.5590, 0.0981, -10.0224, 0.0035, 0.0003, -0.0097, 0.8275, 0.9563, -1.4122, 0.0049, -0.0005, -0.0064, 1611, 50859, 1.0000, 1.0000, -1.5000, 0.0000
14.4570, -0.5590, 0.0981, -10.0224, 0.0035, 0.0003, -0.0097, 0.8277, 0.9566, -1.4150, 0.0054, 0.0099, -0.0052, 1612, 50859, 1.0000, 1.0000, -1.5000, 0.0000
14.4770, -0.5590, 0.0981, -10.0224, 0.0035, 0.0003, -0.0097, 0.8280, 0.9567, -1.4164, 0.0051, 0.0108, -0.0038, 1613, 50859, 1.0000, 1.0000, -1.5000, 0.0000
14.4970, -0.5590, 0.0981, -10.0224, 0.0035, 0.0003, -0.0097, 0.8289, 0.9569, -1.4164, 0.0048, -0.0013, -0.0023, 1614, 50859, 1.0000, 1.0000, -1.5000, 0.0000
14.5170, -0.5590, 0.0981, -10.0224, 0.0035, 0.0003, -0.0097, 0.8290, 0.9571, -1.4176, 0.0052, -0.0041, -0.0009, 1615, 50859, 1.0000, 1.0000, -1.5000, 0.0000
14.5370, -0.5590, 0.0981, -10.0224, 0.0035, 0.0003, -0.0097, 0.8294, 0.9571, -1.4186, 0.0043, -0.0058, 0.0009, 1616, 50859, 1.0000, 1.0000, -1.5000, 0.0000
14.5570, -0.5590, 0.0981, -10.0224, 0.0035, 0.0003, -0.0097, 0.8296, 0.9571, -1.4198, 0.0043, -0.0048, 0.0025, 1617, 50859, 1.0000, 1.0000, -1.5000, 0.0000
14.5770, -0.5590, 0.0981, -10.0224, 0.0035, 0.0003, -0.0097, 0.8295, 0.9572, -1.4223, 0.0039, 0.0036, 0.0035, 1618, 50859, 1.0000, 1.0000, -1.5000, 0.0000
14.5970, -0.5590, 0.0981, -10.0224, 0.0035, 0.0003, -0.0097, 0.8298, 0.9572, -1.4234, 0.0036, 0.0041, 0.0045, 1619, 50859, 1.0000, 1.0000, -1.5000, 0.0000
14.6170, -0.5590, 0.0981, -10.0224, 0.0035, 0.0003, -0.0097, 0.8305, 0.9571, -1.4231, 0.0032, -0.0079, 0.0044, 1620, 50859, 1.0000, 1.0000, -1.5000, 0.0000
14.6370, -0.5590, 0.0981, -10.0224, 0.0035, 0.0003, -0.0097, 0.8303, 0.9571, -1.4241, 0.0036, -0.0108, 0.0054, 1621, 50859, 1.0000, 1.0000, -1.5000, 0.0000
14.6570, -0.5590, 0.0981, -10.0224, 0.0035, 0.0003, -0.0097, 0.8301, 0.9570, -1.4266, 0.0034, 0.0002, 0.0055, 1622, 50859, 1.0000, 1.0000, -1.5000, 0.0000
14.6770, -0.5590, 0.0981, -10.0224, 0.0035, 0.0003, -0.0097, 0.8309, 0.9570, -1.4263, 0.0029, -0.0114, 0.0052, 1623, 50859, 1.0000, 1.0000, -1.5000, 0.0000
14.6970, -0.5590, 0.0981, -10.0224, 0.0035, 0.0003, -0.0097, 0.8308, 0.9569, -1.4273, 0.0027, -0.0126, 0.0066, 1624, 50859, 1.0000, 1.0000, -1.5000, 0.0000
14.7170, -0.5590, 0.0981, -10.0224, 0.0035, 0.0003, -0.0097, 0.8303, 0.9568, -1.4297, 0.0029, -0.0008, 0.0072, 1625, 50859, 1.0000, 1.0000, -1.5000, 0.0000
14.7370, -0.5590, 0.0981, -10.0224, 0.0035, 0.0003, -0.0097, 0.8310, 0.9567, -1.4293, 0.0025, -0.0126, 0.0073, 1626, 50859, 1.0000, 1.0000, -1.5000, 0.0000
14.7570, -0.5590, 0.0981, -10.0224, 0.0035, 0.0003, -0.0097, 0.8306, 0.9565, -1.4303, 0.0031, -0.0144, 0.0080, 1627, 50859, 1.0000, 1.0000, -1.5000, 0.0000
14.7770, -0.5590, 0.0981, -10.0224, 0.0035, 0.0003, -0.0097, 0.8303, 0.9565, -1.4329, 0.0034, -0.0020, 0.0082, 1628, 50859, 1.0000, 1.0000, -1.5000, 0.0000
14.7970, -0.5590, 0.0981, -10.0224, 0.0035, 0.0003, -0.0097, 0.8308, 0.9562, -1.4322, 0.0028, -0.0168, 0.0086, 1629, 50859, 1.0000, 1.0000, -1.5000, 0.0000
14.8170, -0.5590, 0.0981, -10.0224, 0.0035, 0.0003, -0.0097, 0.8308, 0.9563, -1.4331, 0.0026, -0.0173, 0.0092, 1630, 50859, 1.0000, 1.0000, -1.5000, 0.0000
14.8370, -0.5590, 0.0981, -10.0224, 0.0035, 0.0003, -0.0097, 0.8308, 0.9563, -1.4340, 0.0027, -0.0185, 0.0100, 1631, 50859, 1.0000, 1.0000, -1.5000, 0.0000
14.8570, -0.5590, 0.0981, -10.0224, 0.0035, 0.0003, -0.0097, 0.8311, 0.9562, -1.4347, 0.0003, -0.0179, 0.0121, 1632, 50859, 1.0000, 1.0000, -1.5000, 0.0000
14.8770, -0.5590, 0.0981, -10.0224, 0.0035, 0.0003, -0.0097, 0.8312, 0.9564, -1.4353, 0.0011, -0.0183, 0.0135, 1633, 50859, 1.0000, 1.0000, -1.5000, 0.0000
14.8970, -0.5590, 0.0981, -10.0224, 0.0035, 0.0003, -0.0097, 0.8312, 0.9565, -1.4357, 0.0004, -0.0213, 0.0165, 1634, 50859, 1.0000, 1.0000, -1.5000, 0.0000
14.9170, -0.5590, 0.0981, -10.0224, 0.0035, 0.0003, -0.0097, 0.8314, 0.9565, -1.4363, -0.0004, -0.0201, 0.0181, 1635, 50859, 1.0000, 1.0000, -1.5000, 0.0000
14.9370, -0.5590, 0.0981, -10.0224, 0.0035, 0.0003, -0.0097, 0.8315, 0.9567, -1.4367, 0.0004, -0.0210, 0.0191, 1636, 50859, 1.0000, 1.0000, -1.5000, 0.0000
14.9570, -0.5590, 0.0981, -10.0224, 0.0035, 0.0003, -0.0097, 0.8316, 0.9567, -1.4367, -0.0003, -0.0232, 0.0196, 1637, 50859, 1.0000, 1.0000, -1.5000, 0.0000
14.9770, -0.5590, 0.0981, -10.0224, 0.0035, 0.0003, -0.0097, 0.8319, 0.9568, -1.4372, -0.0002, -0.0215, 0.0185, 1638, 50859, 1.0000, 1.0000, -1.5000, 0.0000
14.9970, -0.5590, 0.0981, -10.0224, 0.0035, 0.0003, -0.0097, 0.8321, 0.9571, -1.4374, 0.0000, -0.0225, 0.0171, 1639, 50859, 1.0000, 1.0000, -1.5000, 0.0000
15.0170, -0.5590, 0.0981, -10.0224, 0.0035, 0.0003, -0.0097, 0.8321, 0.9571, -1.4376, -0.0005, -0.0228, 0.0174, 1640, 50859, 1.0000, 1.0000, -1.5000, 0.0000
15.0370, -0.5590, 0.0981, -10.0224, 0.0035, 0.0003, -0.0097, 0.8323, 0.9573, -1.4379, 0.0001, -0.0217, 0.0162, 1641, 50859, 0.9943, 0.9943, -1.4972, 0.0000
15.0570, -0.5590, 0.0981, -10.0224, 0.0035, 0.0003, -0.0097, 0.8326, 0.9578, -1.4382, 0.0002, -0.0220, 0.0160, 1642, 50859, 0.9877, 0.9877, -1.4938, 0.0000
15.0770, -0.5590, 0.0981, -10.0224, 0.0035, 0.0003, -0.0097, 0.8327, 0.9580, -1.4383, -0.0002, -0.0228, 0.0163, 1643, 50859, 0.9810, 0.9810, -1.4905, 0.0000
15.0970, -0.5590, 0.0981, -10.0224, 0.0035, 0.0003, -0.0097, 0.8330, 0.9582, -1.4386, -0.0005, -0.0213, 0.0154, 1644, 50859, 0.9743, 0.9743, -1.4872, 0.0000
15.1170, -0.5590, 0.0981, -10.0224, 0.0035, 0.0003, -0.0097, 0.8332, 0.9586, -1.4387, 0.0001, -0.0213, 0.0149, 1645, 50859, 0.9677, 0.9677, -1.4838, 0.0000
15.1370, -0.5590, 0.0981, -10.0224, 0.0035, 0.0003, -0.0097, 0.8333, 0.9589, -1.4390, -0.0003, -0.0201, 0.0143, 1646, 50859, 0.9610, 0.9610, -1.4805, 0.0000
15.1570, -0.5590, 0.0981, -10.0224, 0.0035, 0.0003, -0.0097, 0.8337, 0.9592, -1.4393, -0.0004, -0.0190, 0.0124, 1647, 50859, 0.9543, 0.9543, -1.4772, 0.0000
15.1770, -0.5590, 0.0981, -10.0224, 0.0035, 0.0003, -0.0097, 0.8341, 0.9597, -1.4395, -0.0003, -0.0183, 0.0114, 1648, 50859, 0.9477, 0.9477, -1.4738, 0.0000
15.1970, -0.5590, 0.0981, -10.0224, 0.0035, 0.0003, -0.0097, 0.8342, 0.9600, -1.4398, -0.0003, -0.0169, 0.0096, 1649, 50859, 0.9410, 0.9410, -1.4705, 0.0000
15.2170, -0.5590, 0.0981, -10.0224, 0.0035, 0.0003, -0.0097, 0.8346, 0.9603, -1.4401, -0.0000, -0.0148, 0.0076, 1650, 50859, 0.9343, 0.9343, -1.4672, 0.0000
15.2370, -0.5590, 0.0981, -10.0224, 0.0035, 0.0003, -0.0097, 0.8344, 0.9608, -1.4416, 0.0000, -0.0011, 0.0066, 1651, 50859, 0.9277, 0.9277, -1.4638, 0.0000
15.2570, -0.5590, 0.0981, -10.0224, 0.0035, 0.0003, -0.0097, 0.8346, 0.9612, -1.4419, -0.0001, 0.0019, 0.0048, 1652, 50859, 0.9210, 0.9210, -1.4605, 0.0000
15.2770, -0.5590, 0.0981, -10.0224, 0.0035, 0.0003, -0.0097, 0.8347, 0.9615, -1.4421, 0.0003, 0.0051, 0.0027, 1653, 50859, 0.9143, 0.9143, -1.4572, 0.0000
15.2970, -0.5590, 0.0981, -10.0224, 0.0035, 0.0003, -0.0097, 0.8348, 0.9618, -1.4422, 0.0003, 0.0070, 0.0002, 1654, 50859, 0.9077, 0.9077, -1.4538, 0.0000
