time (s), accel_x (m/s^2), accel_y (m/s^2), accel_z (m/s^2), gyro_x (rad/s), gyro_y (rad/s), gyro_z (rad/s), x (m), y (m), z (m), yaw (rad), pitch (rad), roll (rad), mocap_counter, counter, desired x, desired y, desired z, desired yaw
0.0000, 0.6276, -0.6570, -9.5419, 0.0062, 0.0051, 0.0132, -0.0287, 0.0111, -0.0956, 0.3182, 0.0385, -0.0214, 150, 258797, 0.5000, 0.5000, -1.0000, 0.0000
0.0200, 0.6276, -0.6570, -9.5419, 0.0062, 0.0051, 0.0132, -0.0287, 0.0111, -0.0956, 0.3183, 0.0387, -0.0214, 151, 258797, 0.5000, 0.5000, -1.0000, 0.0000
0.0400, 0.6276, -0.6570, -9.5419, 0.0062, 0.0051, 0.0132, -0.0287, 0.0111, -0.0956, 0.3182, 0.0385, -0.0214, 152, 258797, 0.5000, 0.5000, -1.0000, 0.0000
0.0600, 0.6276, -0.6570, -9.5419, 0.0062, 0.0051, 0.0132, -0.0288, 0.0110, -0.0956, 0.3181, 0.0387, -0.0214, 153, 258797, 0.5000, 0.5000, -1.0000, 0.0000
0.0800, 0.6276, -0.6570, -9.5419, 0.0062, 0.0051, 0.0132, -0.0287, 0.0111, -0.0957, 0.3182, 0.0385, -0.0214, 154, 258797, 0.5000, 0.5000, -1.0000, 0.0000
0.1000, 0.6276, -0.6570, -9.5419, 0.0062, 0.0051, 0.0132, -0.0287, 0.0111, -0.0956, 0.3181, 0.0386, -0.0215, 155, 258797, 0.5000, 0.5000, -1.0000, 0.0000
0.1200, 0.6276, -0.6570, -9.5419, 0.0062, 0.0051, 0.0132, -0.0287, 0.0111, -0.0957, 0.3182, 0.0385, -0.0214, 156, 258797, 0.5000, 0.5000, -1.0000, 0.0000
0.1400, 0.6276, -0.6570, -9.5419, 0.0062, 0.0051, 0.0132, -0.0286, 0.0111, -0.0957, 0.3182, 0.0386, -0.0214, 157, 258797, 0.5000, 0.5000, -1.0000, 0.0000
0.1600, 0.6276, -0.6570, -9.5419, 0.0062, 0.0051, 0.0132, -0.0287, 0.0111, -0.0956, 0.3182, 0.0386, -0.0215, 158, 258797, 0.5000, 0.5000, -1.0000, 0.0000
0.1800, 0.6276, -0.6570, -9.5419, 0.0062, 0.0051, 0.0132, -0.0287, 0.0111, -0.0957, 0.3182, 0.0385, -0.0213, 159, 258797, 0.5000, 0.5000, -1.0000, 0.0000
0.2000, 0.6276, -0.6570, -9.5419, 0.0062, 0.0051, 0.0132, -0.0288, 0.0111, -0.0956, 0.3181, 0.0386, -0.0215, 160, 258797, 0.5000, 0.5000, -1.0000, 0.0000
0.2200, 0.6276, -0.6570, -9.5419, 0.0062, 0.0051, 0.0132, -0.0287, 0.0111, -0.0957, 0.3182, 0.0385, -0.0214, 161, 258797, 0.5000, 0.5000, -1.0000, 0.0000
0.2400, 0.6276, -0.6570, -9.5419, 0.0062, 0.0051, 0.0132, -0.0287, 0.0111, -0.0956, 0.3182, 0.0387, -0.0216, 162, 258797, 0.5000, 0.5000, -1.0000, 0.0000
0.2600, 0.6276, -0.6570, -9.5419, 0.0062, 0.0051, 0.0132, -0.0287, 0.0111, -0.0956, 0.3182, 0.0385, -0.0215, 163, 258797, 0.5000, 0.5000, -1.0000, 0.0000
0.2800, 0.6276, -0.6570, -9.5419, 0.0062, 0.0051, 0.0132, -0.0287, 0.0111, -0.0957, 0.3182, 0.0385, -0.0215, 164, 258797, 0.5000, 0.5000, -1.0000, 0.0000
0.3000, 0.6276, -0.6570, -9.5419, 0.0062, 0.0051, 0.0132, -0.0287, 0.0111, -0.0956, 0.3181, 0.0387, -0.0215, 165, 258797, 0.5000, 0.5000, -1.0000, 0.0000
0.3200, 0.6276, -0.6570, -9.5419, 0.0062, 0.0051, 0.0132, -0.0287, 0.0111, -0.0957, 0.3183, 0.0385, -0.0212, 166, 258797, 0.5000, 0.5000, -1.0000, 0.0000
0.3400, 0.6276, -0.6570, -9.5419, 0.0062, 0.0051, 0.0132, -0.0287, 0.0110, -0.0957, 0.3182, 0.0387, -0.0214, 167, 258797, 0.5000, 0.5000, -1.0000, 0.0000
0.3600, 0.6276, -0.6570, -9.5419, 0.0062, 0.0051, 0.0132, -0.0287, 0.0111, -0.0956, 0.3182, 0.0385, -0.0214, 168, 258797, 0.5000, 0.5000, -1.0000, 0.0000
0.3800, 0.6276, -0.6570, -9.5419, 0.0062, 0.0051, 0.0132, -0.0287, 0.0111, -0.0957, 0.3183, 0.0386, -0.0213, 169, 258797, 0.5000, 0.5000, -1.0000, 0.0000
0.4000, 0.6276, -0.6570, -9.5419, 0.0062, 0.0051, 0.0132, -0.0287, 0.0111, -0.0956, 0.3182, 0.0387, -0.0214, 170, 258797, 0.5000, 0.5000, -1.0000, 0.0000
0.4200, 0.6276, -0.6570, -9.5419, 0.0062, 0.0051, 0.0132, -0.0287, 0.0111, -0.0957, 0.3182, 0.0385, -0.0213, 171, 258797, 0.5000, 0.5000, -1.0000, 0.0000
0.4400, 0.6276, -0.6570, -9.5419, 0.0062, 0.0051, 0.0132, -0.0287, 0.0111, -0.0956, 0.3183, 0.0388, -0.0215, 172, 258797, 0.5000, 0.5000, -1.0000, 0.0000
0.4600, 0.6276, -0.6570, -9.5419, 0.0062, 0.0051, 0.0132, -0.0287, 0.0111, -0.0956, 0.3181, 0.0384, -0.0214, 173, 258797, 0.5000, 0.5000, -1.0000, 0.0000
0.4800, 0.6276, -0.6570, -9.5419, 0.0062, 0.0051, 0.0132, -0.0288, 0.0111, -0.0956, 0.3182, 0.0385, -0.0214, 174, 258797, 0.5000, 0.5000, -1.0000, 0.0000
0.5000, 0.6276, -0.6570, -9.5419, 0.0062, 0.0051, 0.0132, -0.0287, 0.0111, -0.0957, 0.3182, 0.0387, -0.0215, 175, 258797, 0.5000, 0.5000, -1.0000, 0.0000
0.5200, 0.6276, -0.6570, -9.5419, 0.0062, 0.0051, 0.0132, -0.0287, 0.0111, -0.0956, 0.3183, 0.0385, -0.0215, 176, 258797, 0.5000, 0.5000, -1.0000, 0.0000
0.5400, 0.6276, -0.6570, -9.5419, 0.0062, 0.0051, 0.0132, -0.0288, 0.0111, -0.0956, 0.3181, 0.0387, -0.0216, 177, 258797, 0.5000, 0.5000, -1.0000, 0.0000
0.5600, 0.6276, -0.6570, -9.5419, 0.0062, 0.0051, 0.0132, -0.0286, 0.0111, -0.0956, 0.3181, 0.0384, -0.0216, 178, 258797, 0.5000, 0.5000, -1.0000, 0.0000
0.5800, 0.6276, -0.6570, -9.5419, 0.0062, 0.0051, 0.0132, -0.0287, 0.0111, -0.0956, 0.3182, 0.0387, -0.0216, 179, 258797, 0.5000, 0.5000, -1.0000, 0.0000
0.6000, 0.6276, -0.6570, -9.5419, 0.0062, 0.0051, 0.0132, -0.0287, 0.0111, -0.0957, 0.3182, 0.0386, -0.0216, 180, 258797, 0.5000, 0.5000, -1.0000, 0.0000
0.6200, 0.6276, -0.6570, -9.5419, 0.0062, 0.0051, 0.0132, -0.0287, 0.0111, -0.0956, 0.3182, 0.0385, -0.0216, 181, 258797, 0.5000, 0.5000, -1.0000, 0.0000
0.6400, 0.6276, -0.6570, -9.5419, 0.0062, 0.0051, 0.0132, -0.0287, 0.0111, -0.0956, 0.3182, 0.0386, -0.0215, 182, 258797, 0.5000, 0.5000, -1.0000, 0.0000
0.6600, 0.6276, -0.6570, -9.5419, 0.0062, 0.0051, 0.0132, -0.0287, 0.0111, -0.0957, 0.3183, 0.0386, -0.0215, 183, 258797, 0.5000, 0.5000, -1.0000, 0.0000
0.6800, 0.6276, -0.6570, -9.5419, 0.0062, 0.0051, 0.0132, -0.0288, 0.0111, -0.0956, 0.3182, 0.0387, -0.0214, 184, 258797, 0.5000, 0.5000, -1.0000, 0.0000
0.7000, 0.6276, -0.6570, -9.5419, 0.0062, 0.0051, 0.0132, -0.0287, 0.0111, -0.0957, 0.3182, 0.0386, -0.0214, 185, 258797, 0.5000, 0.5000, -1.0000, 0.0000
0.7200, 0.6276, -0.6570, -9.5419, 0.0062, 0.0051, 0.0132, -0.0287, 0.0111, -0.0956, 0.3182, 0.0387, -0.0216, 186, 258797, 0.5000, 0.5000, -1.0000, 0.0000
0.7400, 0.6276, -0.6570, -9.5419, 0.0062, 0.0051, 0.0132, -0.0288, 0.0111, -0.0956, 0.3182, 0.0386, -0.0215, 187, 258797, 0.5000, 0.5000, -1.0000, 0.0000
0.7600, 0.6276, -0.6570, -9.5419, 0.0062, 0.0051, 0.0132, -0.0287, 0.0111, -0.0957, 0.3182, 0.0386, -0.0215, 188, 258797, 0.5000, 0.5000, -1.0000, 0.0000
0.7800, 0.6276, -0.6570, -9.5419, 0.0062, 0.0051, 0.0132, -0.0287, 0.0111, -0.0956, 0.3182, 0.0386, -0.0215, 189, 258797, 0.5000, 0.5000, -1.0000, 0.0000
0.8000, 0.6276, -0.6570, -9.5419, 0.0062, 0.0051, 0.0132, -0.0287, 0.0111, -0.0957, 0.3183, 0.0385, -0.0214, 190, 258797, 0.5000, 0.5000, -1.0000, 0.0000
0.8200, 0.6276, -0.6570, -9.5419, 0.0062, 0.0051, 0.0132, -0.0287, 0.0111, -0.0956, 0.3181, 0.0387, -0.0215, 191, 258797, 0.5000, 0.5000, -1.0000, 0.0000
0.8400, 0.6276, -0.6570, -9.5419, 0.0062, 0.0051, 0.0132, -0.0287, 0.0111, -0.0957, 0.3182, 0.0385, -0.0215, 192, 258797, 0.5000, 0.5000, -1.0000, 0.0000
0.8600, 0.6276, -0.6570, -9.5419, 0.0062, 0.0051, 0.0132, -0.0287, 0.0111, -0.0957, 0.3182, 0.0387, -0.0214, 193, 258797, 0.5000, 0.5000, -1.0000, 0.0000
0.8800, 0.6276, -0.6570, -9.5419, 0.0062, 0.0051, 0.0132, -0.0287, 0.0111, -0.0956, 0.3182, 0.0385, -0.0215, 194, 258797, 0.5000, 0.5000, -1.0000, 0.0000
0.9000, 0.6276, -0.6570, -9.5419, 0.0062, 0.0051, 0.0132, -0.0287, 0.0111, -0.0957, 0.3182, 0.0385, -0.0215, 195, 258797, 0.5000, 0.5000, -1.0000, 0.0000
0.9200, 0.6276, -0.6570, -9.5419, 0.0062, 0.0051, 0.0132, -0.0287, 0.0111, -0.0956, 0.3182, 0.0387, -0.0216, 196, 258797, 0.5000, 0.5000, -1.0000, 0.0000
0.9400, 0.6276, -0.6570, -9.5419, 0.0062, 0.0051, 0.0132, -0.0287, 0.0111, -0.0956, 0.3182, 0.0384, -0.0214, 197, 258797, 0.5000, 0.5000, -1.0000, 0.0000
0.9600, 0.6276, -0.6570, -9.5419, 0.0062, 0.0051, 0.0132, -0.0288, 0.0111, -0.0956, 0.3181, 0.0386, -0.0215, 198, 258797, 0.5000, 0.5000, -1.0000, 0.0000
0.9800, 0.6276, -0.6570, -9.5419, 0.0062, 0.0051, 0.0132, -0.0287, 0.0111, -0.0956, 0.3182, 0.0385, -0.0215, 199, 258797, 0.5000, 0.5000, -1.0000, 0.0000
1.0000, 0.6276, -0.6570, -9.5419, 0.0062, 0.0051, 0.0132, -0.0287, 0.0111, -0.0957, 0.3182, 0.0385, -0.0215, 200, 258797, 0.5000, 0.5000, -1.0000, 0.0000
1.0200, 0.6276, -0.6570, -9.5419, 0.0062, 0.0051, 0.0132, -0.0287, 0.0111, -0.0956, 0.3182, 0.0387, -0.0216, 201, 258797, 0.5000, 0.5000, -1.0000, 0.0000
1.0400, 0.6276, -0.6570, -9.5419, 0.0062, 0.0051, 0.0132, -0.0287, 0.0111, -0.0956, 0.3182, 0.0384, -0.0215, 202, 258797, 0.5000, 0.5000, -1.0000, 0.0000
1.0600, 0.6276, -0.6570, -9.5419, 0.0062, 0.0051, 0.0132, -0.0287, 0.0111, -0.0956, 0.3181, 0.0388, -0.0214, 203, 258797, 0.5000, 0.5000, -1.0000, 0.0000
1.0800, 0.6276, -0.6570, -9.5419, 0.0062, 0.0051, 0.0132, -0.0287, 0.0111, -0.0957, 0.3182, 0.0385, -0.0214, 204, 258797, 0.5000, 0.5000, -1.0000, 0.0000
1.1000, 0.6276, -0.6570, -9.5419, 0.0062, 0.0051, 0.0132, -0.0287, 0.0111, -0.0956, 0.3183, 0.0386, -0.0213, 205, 258797, 0.5000, 0.5000, -1.0000, 0.0000
1.1200, 0.6276, -0.6570, -9.5419, 0.0062, 0.0051, 0.0132, -0.0287, 0.0111, -0.0956, 0.3182, 0.0387, -0.0213, 206, 258797, 0.5000, 0.5000, -1.0000, 0.0000
1.1400, 0.6276, -0.6570, -9.5419, 0.0062, 0.0051, 0.0132, -0.0286, 0.0111, -0.0957, 0.3182, 0.0385, -0.0214, 207, 258797, 0.5000, 0.5000, -1.0000, 0.0000
1.1600, 0.6276, -0.6570, -9.5419, 0.0062, 0.0051, 0.0132, -0.0288, 0.0111, -0.0956, 0.3182, 0.0388, -0.0214, 208, 258797, 0.5000, 0.5000, -1.0000, 0.0000
1.1800, 0.6276, -0.6570, -9.5419, 0.0062, 0.0051, 0.0132, -0.0286, 0.0111, -0.0957, 0.3180, 0.0385, -0.0215, 209, 258797, 0.5000, 0.5000, -1.0000, 0.0000
1.2000, 0.6276, -0.6570, -9.5419, 0.0062, 0.0051, 0.0132, -0.0287, 0.0112, -0.0956, 0.3181, 0.0388, -0.0216, 210, 258797, 0.5000, 0.5000, -1.0000, 0.0000
1.2200, 0.6276, -0.6570, -9.5419, 0.0062, 0.0051, 0.0132, -0.0286, 0.0112, -0.0956, 0.3181, 0.0387, -0.0214, 211, 258797, 0.5000, 0.5000, -1.0000, 0.0000
1.2400, 0.6276, -0.6570, -9.5419, 0.0062, 0.0051, 0.0132, -0.0286, 0.0111, -0.0956, 0.3181, 0.0387, -0.0215, 212, 258797, 0.5000, 0.5000, -1.0000, 0.0000
1.2600, 0.6276, -0.6570, -9.5419, 0.0062, 0.0051, 0.0132, -0.0286, 0.0111, -0.0956, 0.3181, 0.0389, -0.0215, 213, 258797, 0.5000, 0.5000, -1.0000, 0.0000
1.2800, 0.6276, -0.6570, -9.5419, 0.0062, 0.0051, 0.0132, -0.0286, 0.0112, -0.0957, 0.3180, 0.0385, -0.0216, 214, 258797, 0.5000, 0.5000, -1.0000, 0.0000
1.3000, 0.6276, -0.6570, -9.5419, 0.0062, 0.0051, 0.0132, -0.0286, 0.0111, -0.0955, 0.3180, 0.0388, -0.0215, 215, 258797, 0.5000, 0.5000, -1.0000, 0.0000
1.3200, 0.6276, -0.6570, -9.5419, 0.0062, 0.0051, 0.0132, -0.0286, 0.0111, -0.0957, 0.3181, 0.0388, -0.0214, 216, 258797, 0.5000, 0.5000, -1.0000, 0.0000
1.3400, 0.6276, -0.6570, -9.5419, 0.0062, 0.0051, 0.0132, -0.0286, 0.0112, -0.0956, 0.3180, 0.0387, -0.0215, 217, 258797, 0.5000, 0.5000, -1.0000, 0.0000
1.3600, 0.6276, -0.6570, -9.5419, 0.0062, 0.0051, 0.0132, -0.0286, 0.0112, -0.0956, 0.3181, 0.0388, -0.0214, 218, 258797, 0.5000, 0.5000, -1.0000, 0.0000
1.3800, 0.6276, -0.6570, -9.5419, 0.0062, 0.0051, 0.0132, -0.0286, 0.0112, -0.0956, 0.3181, 0.0388, -0.0214, 219, 258797, 0.5000, 0.5000, -1.0000, 0.0000
1.4000, 0.6276, -0.6570, -9.5419, 0.0062, 0.0051, 0.0132, -0.0286, 0.0112, -0.0955, 0.3180, 0.0388, -0.0215, 220, 258797, 0.5000, 0.5000, -1.0000, 0.0000
1.4200, 0.6276, -0.6570, -9.5419, 0.0062, 0.0051, 0.0132, -0.0286, 0.0111, -0.0957, 0.3181, 0.0385, -0.0214, 221, 258797, 0.5000, 0.5000, -1.0000, 0.0000
1.4400, 0.6276, -0.6570, -9.5419, 0.0062, 0.0051, 0.0132, -0.0286, 0.0112, -0.0956, 0.3181, 0.0392, -0.0214, 222, 258797, 0.5000, 0.5000, -1.0000, 0.0000
1.4600, 0.6276, -0.6570, -9.5419, 0.0062, 0.0051, 0.0132, -0.0286, 0.0112, -0.0956, 0.3181, 0.0387, -0.0214, 223, 258797, 0.5000, 0.5000, -1.0000, 0.0000
1.4790, 0.6276, -0.6570, -9.5419, 0.0062, 0.0051, 0.0132, -0.0286, 0.0112, -0.0956, 0.3181, 0.0388, -0.0212, 224, 258797, 0.5000, 0.5000, -1.0000, 0.0000
1.5000, 0.6276, -0.6570, -9.5419, 0.0062, 0.0051, 0.0132, -0.0286, 0.0112, -0.0955, 0.3181, 0.0388, -0.0213, 225, 258797, 0.5000, 0.5000, -1.0000, 0.0000
1.5200, 0.6276, -0.6570, -9.5419, 0.0062, 0.0051, 0.0132, -0.0286, 0.0112, -0.0956, 0.3180, 0.0387, -0.0213, 226, 258797, 0.5000, 0.5000, -1.0000, 0.0000
1.5400, 0.6276, -0.6570, -9.5419, 0.0062, 0.0051, 0.0132, -0.0285, 0.0112, -0.0956, 0.3182, 0.0388, -0.0210, 227, 258797, 0.5000, 0.5000, -1.0000, 0.0000
1.5600, 0.6276, -0.6570, -9.5419, 0.0062, 0.0051, 0.0132, -0.0285, 0.0112, -0.0956, 0.3183, 0.0384, -0.0211, 228, 258797, 0.5000, 0.5000, -1.0000, 0.0000
1.5790, 0.6276, -0.6570, -9.5419, 0.0062, 0.0051, 0.0132, -0.0285, 0.0112, -0.0957, 0.3176, 0.0388, -0.0215, 229, 258797, 0.5000, 0.5000, -1.0000, 0.0000
1.6000, 0.6276, -0.6570, -9.5419, 0.0062, 0.0051, 0.0132, -0.0285, 0.0112, -0.0955, 0.3179, 0.0384, -0.0211, 230, 258797, 0.5000, 0.5000, -1.0000, 0.0000
1.6200, 0.6276, -0.6570, -9.5419, 0.0062, 0.0051, 0.0132, -0.0286, 0.0113, -0.0956, 0.3180, 0.0382, -0.0215, 231, 258797, 0.5000, 0.5000, -1.0000, 0.0000
1.6390, 0.6276, -0.6570, -9.5419, 0.0062, 0.0051, 0.0132, -0.0286, 0.0112, -0.0957, 0.3183, 0.0390, -0.0213, 232, 258797, 0.5000, 0.5000, -1.0000, 0.0000
1.6590, 0.6276, -0.6570, -9.5419, 0.0062, 0.0051, 0.0132, -0.0285, 0.0112, -0.0956, 0.3178, 0.0381, -0.0216, 233, 258797, 0.5000, 0.5000, -1.0000, 0.0000
1.6790, 0.6276, -0.6570, -9.5419, 0.0062, 0.0051, 0.0132, -0.0287, 0.0112, -0.0957, 0.3176, 0.0386, -0.0214, 234, 258797, 0.5000, 0.5000, -1.0000, 0.0000
1.7000, 0.6276, -0.6570, -9.5419, 0.0062, 0.0051, 0.0132, -0.0285, 0.0113, -0.0956, 0.3177, 0.0384, -0.0211, 235, 258797, 0.5000, 0.5000, -1.0000, 0.0000
1.7190, 0.6276, -0.6570, -9.5419, 0.0062, 0.0051, 0.0132, -0.0285, 0.0112, -0.0956, 0.3181, 0.0384, -0.0211, 236, 258797, 0.5000, 0.5000, -1.0000, 0.0000
1.7390, 0.6276, -0.6570, -9.5419, 0.0062, 0.0051, 0.0132, -0.0285, 0.0112, -0.0956, 0.3182, 0.0385, -0.0217, 237, 258797, 0.5000, 0.5000, -1.0000, 0.0000
1.7590, 0.6276, -0.6570, -9.5419, 0.0062, 0.0051, 0.0132, -0.0285, 0.0112, -0.0956, 0.3180, 0.0385, -0.0216, 238, 258797, 0.5000, 0.5000, -1.0000, 0.0000
1.7790, 0.6276, -0.6570, -9.5419, 0.0062, 0.0051, 0.0132, -0.0286, 0.0112, -0.0956, 0.3179, 0.0386, -0.0214, 239, 258797, 0.5000, 0.5000, -1.0000, 0.0000
1.8030, 0.6276, -0.6570, -9.5419, 0.0062, 0.0051, 0.0132, -0.0285, 0.0112, -0.0957, 0.3179, 0.0385, -0.0215, 240, 258797, 0.5000, 0.5000, -1.0000, 0.0000
1.8230, 0.6276, -0.6570, -9.5419, 0.0062, 0.0051, 0.0132, -0.0286, 0.0111, -0.0956, 0.3180, 0.0384, -0.0216, 241, 258797, 0.5000, 0.5000, -1.0000, 0.0000
1.8430, 0.6276, -0.6570, -9.5419, 0.0062, 0.0051, 0.0132, -0.0285, 0.0112, -0.0957, 0.3180, 0.0386, -0.0218, 242, 258797, 0.5000, 0.5000, -1.0000, 0.0000
1.8630, 0.6276, -0.6570, -9.5419, 0.0062, 0.0051, 0.0132, -0.0285, 0.0111, -0.0956, 0.3181, 0.0384, -0.0216, 243, 258797, 0.5000, 0.5000, -1.0000, 0.0000
1.8830, 0.6276, -0.6570, -9.5419, 0.0062, 0.0051, 0.0132, -0.0286, 0.0112, -0.0956, 0.3179, 0.0388, -0.0219, 244, 258797, 0.5000, 0.5000, -1.0000, 0.0000
1.9030, 0.6276, -0.6570, -9.5419, 0.0062, 0.0051, 0.0132, -0.0285, 0.0111, -0.0957, 0.3181, 0.0385, -0.0215, 245, 258797, 0.5000, 0.5000, -1.0000, 0.0000
1.9230, 0.6276, -0.6570, -9.5419, 0.0062, 0.0051, 0.0132, -0.0286, 0.0112, -0.0956, 0.3180, 0.0389, -0.0219, 246, 258797, 0.5000, 0.5000, -1.0000, 0.0000
1.9430, 0.6276, -0.6570, -9.5419, 0.0062, 0.0051, 0.0132, -0.0285, 0.0112, -0.0957, 0.3183, 0.0385, -0.0212, 247, 258797, 0.5000, 0.5000, -1.0000, 0.0000
1.9630, 0.6276, -0.6570, -9.5419, 0.0062, 0.0051, 0.0132, -0.0285, 0.0112, -0.0956, 0.3180, 0.0387, -0.0219, 248, 258797, 0.5000, 0.5000, -1.0000, 0.0000
1.9830, 0.6276, -0.6570, -9.5419, 0.0062, 0.0051, 0.0132, -0.0286, 0.0112, -0.0956, 0.3181, 0.0385, -0.0216, 249, 258797, 0.5000, 0.5000, -1.0000, 0.0000
2.0030, 0.6276, -0.6570, -9.5419, 0.0062, 0.0051, 0.0132, -0.0285, 0.0112, -0.0957, 0.3178, 0.0387, -0.0219, 250, 258797, 0.5000, 0.5000, -1.0000, 0.0000
2.0230, 0.6276, -0.6570, -9.5419, 0.0062, 0.0051, 0.0132, -0.0286, 0.0112, -0.0956, 0.3180, 0.0387, -0.0217, 251, 258797, 0.5000, 0.5000, -1.0000, 0.0000
2.0430, 0.6276, -0.6570, -9.5419, 0.0062, 0.0051, 0.0132, -0.0285, 0.0112, -0.0958, 0.3180, 0.0386, -0.0213, 252, 258797, 0.5000, 0.5000, -1.0000, 0.0000
2.0630, 0.6276, -0.6570, -9.5419, 0.0062, 0.0051, 0.0132, -0.0286, 0.0112, -0.0957, 0.3180, 0.0387, -0.0215, 253, 258797, 0.5000, 0.5000, -1.0000, 0.0000
2.0830, 0.6276, -0.6570, -9.5419, 0.0062, 0.0051, 0.0132, -0.0285, 0.0113, -0.0957, 0.3179, 0.0384, -0.0214, 254, 258797, 0.5000, 0.5000, -1.0000, 0.0000
2.1030, 0.6276, -0.6570, -9.5419, 0.0062, 0.0051, 0.0132, -0.0285, 0.0112, -0.0957, 0.3179, 0.0385, -0.0214, 255, 258797, 0.5000, 0.5000, -1.0000, 0.0000
2.1230, 0.6276, -0.6570, -9.5419, 0.0062, 0.0051, 0.0132, -0.0286, 0.0112, -0.0956, 0.3177, 0.0387, -0.0214, 256, 258797, 0.5000, 0.5000, -1.0000, 0.0000
2.1430, 0.6276, -0.6570, -9.5419, 0.0062, 0.0051, 0.0132, -0.0286, 0.0112, -0.0957, 0.3181, 0.0385, -0.0215, 257, 258797, 0.5000, 0.5000, -1.0000, 0.0000
2.1630, 0.6276, -0.6570, -9.5419, 0.0062, 0.0051, 0.0132, -0.0285, 0.0112, -0.0957, 0.3182, 0.0391, -0.0214, 258, 258797, 0.5000, 0.5000, -1.0000, 0.0000
2.1830, 0.6276, -0.6570, -9.5419, 0.0062, 0.0051, 0.0132, -0.0285, 0.0113, -0.0956, 0.3180, 0.0383, -0.0219, 259, 258797, 0.5000, 0.5000, -1.0000, 0.0000
2.2030, 0.6276, -0.6570, -9.5419, 0.0062, 0.0051, 0.0132, -0.0286, 0.0111, -0.0957, 0.3181, 0.0385, -0.0215, 260, 258797, 0.5000, 0.5000, -1.0000, 0.0000
2.2230, 0.6276, -0.6570, -9.5419, 0.0062, 0.0051, 0.0132, -0.0285, 0.0113, -0.0957, 0.3177, 0.0385, -0.0210, 261, 258797, 0.5000, 0.5000, -1.0000, 0.0000
2.2430, 0.6276, -0.6570, -9.5419, 0.0062, 0.0051, 0.0132, -0.0286, 0.0112, -0.0957, 0.3179, 0.0383, -0.0211, 262, 258797, 0.5000, 0.5000, -1.0000, 0.0000
2.2630, 0.6276, -0.6570, -9.5419, 0.0062, 0.0051, 0.0132, -0.0286, 0.0112, -0.0956, 0.3179, 0.0390, -0.0215, 263, 258797, 0.5000, 0.5000, -1.0000, 0.0000
2.2830, 0.6276, -0.6570, -9.5419, 0.0062, 0.0051, 0.0132, -0.0285, 0.0112, -0.0956, 0.3182, 0.0386, -0.0214, 264, 258797, 0.5000, 0.5000, -1.0000, 0.0000
2.3030, 0.6276, -0.6570, -9.5419, 0.0062, 0.0051, 0.0132, -0.0286, 0.0113, -0.0957, 0.3180, 0.0388, -0.0219, 265, 258797, 0.5000, 0.5000, -1.0000, 0.0000
2.3230, 0.6276, -0.6570, -9.5419, 0.0062, 0.0051, 0.0132, -0.0285, 0.0112, -0.0956, 0.3181, 0.0387, -0.0217, 266, 258797, 0.5000, 0.5000, -1.0000, 0.0000
2.3430, 0.6276, -0.6570, -9.5419, 0.0062, 0.0051, 0.0132, -0.0285, 0.0112, -0.0958, 0.3179, 0.0385, -0.0212, 267, 258797, 0.5000, 0.5000, -1.0000, 0.0000
2.3630, 0.6276, -0.6570, -9.5419, 0.0062, 0.0051, 0.0132, -0.0286, 0.0112, -0.0957, 0.3180, 0.0388, -0.0212, 268, 258797, 0.5000, 0.5000, -1.0000, 0.0000
2.3830, 0.6276, -0.6570, -9.5419, 0.0062, 0.0051, 0.0132, -0.0285, 0.0112, -0.0956, 0.3180, 0.0386, -0.0216, 269, 258797, 0.5000, 0.5000, -1.0000, 0.0000
2.4030, 0.6276, -0.6570, -9.5419, 0.0062, 0.0051, 0.0132, -0.0286, 0.0112, -0.0957, 0.3182, 0.0389, -0.0216, 270, 258797, 0.5000, 0.5000, -1.0000, 0.0000
2.4230, 0.6276, -0.6570, -9.5419, 0.0062, 0.0051, 0.0132, -0.0285, 0.0112, -0.0957, 0.3181, 0.0387, -0.0219, 271, 258797, 0.5000, 0.5000, -1.0000, 0.0000
2.4430, 0.6276, -0.6570, -9.5419, 0.0062, 0.0051, 0.0132, -0.0286, 0.0112, -0.0957, 0.3181, 0.0386, -0.0218, 272, 258797, 0.5000, 0.5000, -1.0000, 0.0000
2.4630, 0.6276, -0.6570, -9.5419, 0.0062, 0.0051, 0.0132, -0.0286, 0.0112, -0.0957, 0.3179, 0.0386, -0.0215, 273, 258797, 0.5000, 0.5000, -1.0000, 0.0000
2.4830, 0.6276, -0.6570, -9.5419, 0.0062, 0.0051, 0.0132, -0.0285, 0.0113, -0.0958, 0.3180, 0.0386, -0.0216, 274, 258797, 0.5000, 0.5000, -1.0000, 0.0000
2.5030, 0.6276, -0.6570, -9.5419, 0.0062, 0.0051, 0.0132, -0.0286, 0.0112, -0.0956, 0.3180, 0.0387, -0.0217, 275, 258797, 0.5000, 0.5000, -1.0000, 0.0000
2.5230, 0.6276, -0.6570, -9.5419, 0.0062, 0.0051, 0.0132, -0.0285, 0.0112, -0.0957, 0.3181, 0.0389, -0.0220, 276, 258797, 0.5000, 0.5000, -1.0000, 0.0000
2.5430, 0.6276, -0.6570, -9.5419, 0.0062, 0.0051, 0.0132, -0.0285, 0.0112, -0.0956, 0.3180, 0.0389, -0.0221, 277, 258797, 0.5000, 0.5000, -1.0000, 0.0000
2.5630, 0.6276, -0.6570, -9.5419, 0.0062, 0.0051, 0.0132, -0.0285, 0.0112, -0.0957, 0.3180, 0.0388, -0.0214, 278, 258797, 0.5000, 0.5000, -1.0000, 0.0000
2.5830, 0.6276, -0.6570, -9.5419, 0.0062, 0.0051, 0.0132, -0.0285, 0.0112, -0.0957, 0.3179, 0.0385, -0.0215, 279, 258797, 0.5000, 0.5000, -1.0000, 0.0000
2.6030, 0.6276, -0.6570, -9.5419, 0.0062, 0.0051, 0.0132, -0.0286, 0.0112, -0.0957, 0.3179, 0.0385, -0.0216, 280, 258797, 0.5000, 0.5000, -1.0000, 0.0000
2.6230, 0.6276, -0.6570, -9.5419, 0.0062, 0.0051, 0.0132, -0.0285, 0.0112, -0.0957, 0.3180, 0.0386, -0.0215, 281, 258797, 0.5000, 0.5000, -1.0000, 0.0000
2.6430, 0.6276, -0.6570, -9.5419, 0.0062, 0.0051, 0.0132, -0.0285, 0.0112, -0.0956, 0.3178, 0.0387, -0.0222, 282, 258797, 0.5000, 0.5000, -1.0000, 0.0000
2.6630, 0.6276, -0.6570, -9.5419, 0.0062, 0.0051, 0.0132, -0.0285, 0.0112, -0.0960, 0.3181, 0.0385, -0.0224, 283, 258797, 0.5000, 0.5000, -1.0000, 0.0000
2.6830, 0.6276, -0.6570, -9.5419, 0.0062, 0.0051, 0.0132, -0.0285, 0.0112, -0.0960, 0.3180, 0.0384, -0.0233, 284, 258797, 0.5000, 0.5000, -1.0000, 0.0000
2.7030, 0.6276, -0.6570, -9.5419, 0.0062, 0.0051, 0.0132, -0.0284, 0.0112, -0.0967, 0.3183, 0.0367, -0.0248, 285, 258797, 0.5000, 0.5000, -1.0000, 0.0000
2.7230, 0.6276, -0.6570, -9.5419, 0.0062, 0.0051, 0.0132, -0.0283, 0.0112, -0.0979, 0.3180, 0.0342, -0.0282, 286, 258797, 0.5000, 0.5000, -1.0000, 0.0000
2.7430, 0.6276, -0.6570, -9.5419, 0.0062, 0.0051, 0.0132, -0.0281, 0.0113, -0.0984, 0.3161, 0.0307, -0.0282, 287, 258797, 0.5000, 0.5000, -1.0000, 0.0000
2.7630, 0.6276, -0.6570, -9.5419, 0.0062, 0.0051, 0.0132, -0.0278, 0.0122, -0.0995, 0.3115, 0.0212, -0.0263, 288, 258797, 0.5000, 0.5000, -1.0000, 0.0000
2.7830, 0.6276, -0.6570, -9.5419, 0.0062, 0.0051, 0.0132, -0.0279, 0.0137, -0.1017, 0.3027, 0.0078, -0.0205, 289, 258797, 0.5000, 0.5000, -1.0000, 0.0000
2.8030, 0.6276, -0.6570, -9.5419, 0.0062, 0.0051, 0.0132, -0.0277, 0.0159, -0.1055, 0.2932, -0.0105, -0.0163, 290, 258797, 0.5000, 0.5000, -1.0000, 0.0000
2.8230, 0.6276, -0.6570, -9.5419, 0.0062, 0.0051, 0.0132, -0.0277, 0.0186, -0.1118, 0.2826, -0.0328, -0.0152, 291, 258797, 0.5000, 0.5000, -1.0000, 0.0000
2.8430, 0.6276, -0.6570, -9.5419, 0.0062, 0.0051, 0.0132, -0.0276, 0.0220, -0.1194, 0.2718, -0.0539, -0.0156, 292, 258797, 0.5000, 0.5000, -1.0000, 0.0000
2.8630, 0.6276, -0.6570, -9.5419, 0.0062, 0.0051, 0.0132, -0.0277, 0.0260, -0.1292, 0.2607, -0.0721, -0.0160, 293, 258797, 0.5000, 0.5000, -1.0000, 0.0000
2.8830, 0.6276, -0.6570, -9.5419, 0.0062, 0.0051, 0.0132, -0.0275, 0.0306, -0.1403, 0.2495, -0.0879, -0.0155, 294, 258797, 0.5000, 0.5000, -1.0000, 0.0000
2.9030, 0.6276, -0.6570, -9.5419, 0.0062, 0.0051, 0.0132, -0.0271, 0.0356, -0.1526, 0.2387, -0.1022, -0.0161, 295, 258797, 0.5000, 0.5000, -1.0000, 0.0000
2.9230, 0.6276, -0.6570, -9.5419, 0.0062, 0.0051, 0.0132, -0.0266, 0.0411, -0.1661, 0.2275, -0.1143, -0.0187, 296, 258797, 0.5000, 0.5000, -1.0000, 0.0000
2.9430, 0.6276, -0.6570, -9.5419, 0.0062, 0.0051, 0.0132, -0.0257, 0.0472, -0.1804, 0.2165, -0.1255, -0.0193, 297, 258797, 0.5000, 0.5000, -1.0000, 0.0000
2.9630, 0.6276, -0.6570, -9.5419, 0.0062, 0.0051, 0.0132, -0.0244, 0.0538, -0.1951, 0.2057, -0.1365, -0.0211, 298, 258797, 0.5000, 0.5000, -1.0000, 0.0000
2.9830, 0.6276, -0.6570, -9.5419, 0.0062, 0.0051, 0.0132, -0.0229, 0.0609, -0.2106, 0.1951, -0.1453, -0.0231, 299, 258797, 0.5000, 0.5000, -1.0000, 0.0000
3.0030, 0.6276, -0.6570, -9.5419, 0.0062, 0.0051, 0.0132, -0.0207, 0.0686, -0.2264, 0.1847, -0.1537, -0.0251, 300, 258797, 0.5000, 0.5000, -1.0000, 0.0000
3.0230, 0.6276, -0.6570, -9.5419, 0.0062, 0.0051, 0.0132, -0.0183, 0.0765, -0.2425, 0.1750, -0.1593, -0.0279, 301, 258797, 0.5000, 0.5000, -1.0000, 0.0000
3.0430, 0.6276, -0.6570, -9.5419, 0.0062, 0.0051, 0.0132, -0.0154, 0.0851, -0.2592, 0.1655, -0.1632, -0.0309, 302, 258797, 0.5000, 0.5000, -1.0000, 0.0000
3.0630, 0.6276, -0.6570, -9.5419, 0.0062, 0.0051, 0.0132, -0.0119, 0.0940, -0.2758, 0.1560, -0.1659, -0.0349, 303, 258797, 0.5000, 0.5000, -1.0000, 0.0000
3.0830, 0.6276, -0.6570, -9.5419, 0.0062, 0.0051, 0.0132, -0.0081, 0.1033, -0.2927, 0.1470, -0.1679, -0.0383, 304, 258797, 0.5000, 0.5000, -1.0000, 0.0000
3.1030, 0.6276, -0.6570, -9.5419, 0.0062, 0.0051, 0.0132, -0.0036, 0.1127, -0.3100, 0.1385, -0.1687, -0.0430, 305, 258797, 0.5000, 0.5000, -1.0000, 0.0000
3.1230, 0.6276, -0.6570, -9.5419, 0.0062, 0.0051, 0.0132, 0.0012, 0.1226, -0.3275, 0.1302, -0.1684, -0.0487, 306, 258797, 0.5000, 0.5000, -1.0000, 0.0000
3.1430, 0.6276, -0.6570, -9.5419, 0.0062, 0.0051, 0.0132, 0.0066, 0.1326, -0.3453, 0.1223, -0.1676, -0.0537, 307, 258797, 0.5000, 0.5000, -1.0000, 0.0000
3.1630, 0.6276, -0.6570, -9.5419, 0.0062, 0.0051, 0.0132, 0.0122, 0.1431, -0.3628, 0.1149, -0.1649, -0.0594, 308, 258797, 0.5000, 0.5000, -1.0000, 0.0000
3.1830, 0.6276, -0.6570, -9.5419, 0.0062, 0.0051, 0.0132, 0.0183, 0.1535, -0.3801, 0.1078, -0.1626, -0.0643, 309, 258797, 0.5000, 0.5000, -1.0000, 0.0000
3.2030, 0.6276, -0.6570, -9.5419, 0.0062, 0.0051, 0.0132, 0.0250, 0.1643, -0.3973, 0.1011, -0.1594, -0.0706, 310, 258797, 0.5000, 0.5000, -1.0000, 0.0000
3.2230, 0.6276, -0.6570, -9.5419, 0.0062, 0.0051, 0.0132, 0.0322, 0.1751, -0.4138, 0.0946, -0.1556, -0.0759, 311, 258797, 0.5000, 0.5000, -1.0000, 0.0000
3.2430, 0.6276, -0.6570, -9.5419, 0.0062, 0.0051, 0.0132, 0.0396, 0.1860, -0.4297, 0.0891, -0.1504, -0.0820, 312, 258797, 0.5000, 0.5000, -1.0000, 0.0000
3.2630, 0.6276, -0.6570, -9.5419, 0.0062, 0.0051, 0.0132, 0.0474, 0.1971, -0.4447, 0.0829, -0.1444, -0.0903, 313, 258797, 0.5000, 0.5000, -1.0000, 0.0000
3.2830, 0.6276, -0.6570, -9.5419, 0.0062, 0.0051, 0.0132, 0.0556, 0.2080, -0.4592, 0.0774, -0.1390, -0.0980, 314, 258797, 0.5000, 0.5000, -1.0000, 0.0000
3.3030, 0.6276, -0.6570, -9.5419, 0.0062, 0.0051, 0.0132, 0.0643, 0.2192, -0.4730, 0.0726, -0.1330, -0.1035, 315, 258797, 0.5000, 0.5000, -1.0000, 0.0000
3.3230, 0.6276, -0.6570, -9.5419, 0.0062, 0.0051, 0.0132, 0.0730, 0.2303, -0.4865, 0.0681, -0.1269, -0.1084, 316, 258797, 0.5000, 0.5000, -1.0000, 0.0000
3.3430, 0.6276, -0.6570, -9.5419, 0.0062, 0.0051, 0.0132, 0.0824, 0.2414, -0.4995, 0.0632, -0.1214, -0.1131, 317, 258797, 0.5000, 0.5000, -1.0000, 0.0000
3.3630, 0.6276, -0.6570, -9.5419, 0.0062, 0.0051, 0.0132, 0.0919, 0.2524, -0.5120, 0.0598, -0.1148, -0.1184, 318, 258797, 0.5000, 0.5000, -1.0000, 0.0000
3.3830, 0.6276, -0.6570, -9.5419, 0.0062, 0.0051, 0.0132, 0.1018, 0.2634, -0.5243, 0.0562, -0.1077, -0.1228, 319, 258797, 0.5000, 0.5000, -1.0000, 0.0000
3.4030, 0.6276, -0.6570, -9.5419, 0.0062, 0.0051, 0.0132, 0.1119, 0.2744, -0.5362, 0.0528, -0.1001, -0.1274, 320, 258797, 0.5000, 0.5000, -1.0000, 0.0000
3.4230, 0.6276, -0.6570, -9.5419, 0.0062, 0.0051, 0.0132, 0.1221, 0.2853, -0.5478, 0.0500, -0.0923, -0.1322, 321, 258797, 0.5000, 0.5000, -1.0000, 0.0000
3.4430, 0.6276, -0.6570, -9.5419, 0.0062, 0.0051, 0.0132, 0.1327, 0.2960, -0.5594, 0.0476, -0.0847, -0.1364, 322, 258797, 0.5000, 0.5000, -1.0000, 0.0000
3.4630, 0.6276, -0.6570, -9.5419, 0.0062, 0.0051, 0.0132, 0.1435, 0.3065, -0.5709, 0.0449, -0.0777, -0.1409, 323, 258797, 0.5000, 0.5000, -1.0000, 0.0000
3.4830, 0.6276, -0.6570, -9.5419, 0.0062, 0.0051, 0.0132, 0.1542, 0.3168, -0.5823, 0.0427, -0.0702, -0.1452, 324, 258797, 0.5000, 0.5000, -1.0000, 0.0000
3.5030, 0.6276, -0.6570, -9.5419, 0.0062, 0.0051, 0.0132, 0.1651, 0.3269, -0.5940, 0.0404, -0.0628, -0.1489, 325, 258797, 0.5000, 0.5000, -1.0000, 0.0000
3.5230, 0.6276, -0.6570, -9.5419, 0.0062, 0.0051, 0.0132, 0.1760, 0.3369, -0.6053, 0.0390, -0.0552, -0.1525, 326, 258797, 0.5000, 0.5000, -1.0000, 0.0000
3.5430, 0.6276, -0.6570, -9.5419, 0.0062, 0.0051, 0.0132, 0.1870, 0.3467, -0.6167, 0.0368, -0.0472, -0.1556, 327, 258797, 0.5000, 0.5000, -1.0000, 0.0000
3.5630, 0.6276, -0.6570, -9.5419, 0.0062, 0.0051, 0.0132, 0.1981, 0.3562, -0.6279, 0.0355, -0.0396, -0.1579, 328, 258797, 0.5000, 0.5000, -1.0000, 0.0000
3.5830, 0.6276, -0.6570, -9.5419, 0.0062, 0.0051, 0.0132, 0.2092, 0.3655, -0.6388, 0.0341, -0.0321, -0.1605, 329, 258797, 0.5000, 0.5000, -1.0000, 0.0000
3.6030, 0.6276, -0.6570, -9.5419, 0.0062, 0.0051, 0.0132, 0.2202, 0.3746, -0.6495, 0.0330, -0.0247, -0.1630, 330, 258797, 0.5000, 0.5000, -1.0000, 0.0000
3.6230, 0.6276, -0.6570, -9.5419, 0.0062, 0.0051, 0.0132, 0.2311, 0.3835, -0.6601, 0.0317, -0.0175, -0.1654, 331, 258797, 0.5000, 0.5000, -1.0000, 0.0000
3.6430, 0.6276, -0.6570, -9.5419, 0.0062, 0.0051, 0.0132, 0.2422, 0.3921, -0.6702, 0.0306, -0.0117, -0.1676, 332, 258797, 0.5000, 0.5000, -1.0000, 0.0000
3.6630, 0.6276, -0.6570, -9.5419, 0.0062, 0.0051, 0.0132, 0.2531, 0.4004, -0.6802, 0.0297, -0.0056, -0.1695, 333, 258797, 0.5000, 0.5000, -1.0000, 0.0000
3.6830, 0.6276, -0.6570, -9.5419, 0.0062, 0.0051, 0.0132, 0.2639, 0.4084, -0.6898, 0.0287, 0.0010, -0.1713, 334, 258797, 0.5000, 0.5000, -1.0000, 0.0000
3.7030, 0.6276, -0.6570, -9.5419, 0.0062, 0.0051, 0.0132, 0.2746, 0.4163, -0.6992, 0.0274, 0.0065, -0.1721, 335, 258797, 0.5000, 0.5000, -1.0000, 0.0000
3.7230, 0.6276, -0.6570, -9.5419, 0.0062, 0.0051, 0.0132, 0.2851, 0.4238, -0.7085, 0.0270, 0.0120, -0.1729, 336, 258797, 0.5000, 0.5000, -1.0000, 0.0000
3.7430, 0.6276, -0.6570, -9.5419, 0.0062, 0.0051, 0.0132, 0.2955, 0.4310, -0.7174, 0.0263, 0.0175, -0.1743, 337, 258797, 0.5000, 0.5000, -1.0000, 0.0000
3.7630, 0.6276, -0.6570, -9.5419, 0.0062, 0.0051, 0.0132, 0.3056, 0.4380, -0.7263, 0.0253, 0.0226, -0.1747, 338, 258797, 0.5000, 0.5000, -1.0000, 0.0000
3.7840, 0.6276, -0.6570, -9.5419, 0.0062, 0.0051, 0.0132, 0.3154, 0.4447, -0.7352, 0.0245, 0.0269, -0.1747, 339, 258797, 0.5000, 0.5000, -1.0000, 0.0000
3.8040, 0.6276, -0.6570, -9.5419, 0.0062, 0.0051, 0.0132, 0.3250, 0.4511, -0.7440, 0.0233, 0.0310, -0.1744, 340, 258797, 0.5000, 0.5000, -1.0000, 0.0000
3.8240, 0.6276, -0.6570, -9.5419, 0.0062, 0.0051, 0.0132, 0.3343, 0.4573, -0.7528, 0.0229, 0.0346, -0.1743, 341, 258797, 0.5000, 0.5000, -1.0000, 0.0000
3.8440, 0.6276, -0.6570, -9.5419, 0.0062, 0.0051, 0.0132, 0.3434, 0.4632, -0.7613, 0.0221, 0.0384, -0.1743, 342, 258797, 0.5000, 0.5000, -1.0000, 0.0000
3.8640, 0.6276, -0.6570, -9.5419, 0.0062, 0.0051, 0.0132, 0.3521, 0.4687, -0.7699, 0.0214, 0.0423, -0.1740, 343, 258797, 0.5000, 0.5000, -1.0000, 0.0000
3.8840, 0.6276, -0.6570, -9.5419, 0.0062, 0.0051, 0.0132, 0.3605, 0.4740, -0.7784, 0.0204, 0.0450, -0.1737, 344, 258797, 0.5000, 0.5000, -1.0000, 0.0000
3.9040, 0.6276, -0.6570, -9.5419, 0.0062, 0.0051, 0.0132, 0.3688, 0.4791, -0.7865, 0.0198, 0.0480, -0.1730, 345, 258797, 0.5000, 0.5000, -1.0000, 0.0000
3.9240, 0.6276, -0.6570, -9.5419, 0.0062, 0.0051, 0.0132, 0.3765, 0.4839, -0.7945, 0.0195, 0.0505, -0.1726, 346, 258797, 0.5000, 0.5000, -1.0000, 0.0000
3.9440, 0.6276, -0.6570, -9.5419, 0.0062, 0.0051, 0.0132, 0.3841, 0.4885, -0.8024, 0.0181, 0.0526, -0.1713, 347, 258797, 0.5000, 0.5000, -1.0000, 0.0000
3.9640, 0.6276, -0.6570, -9.5419, 0.0062, 0.0051, 0.0132, 0.3914, 0.4927, -0.8098, 0.0176, 0.0539, -0.1707, 348, 258797, 0.5000, 0.5000, -1.0000, 0.0000
3.9840, 0.6276, -0.6570, -9.5419, 0.0062, 0.0051, 0.0132, 0.3984, 0.4968, -0.8171, 0.0169, 0.0550, -0.1692, 349, 258797, 0.5000, 0.5000, -1.0000, 0.0000
4.0040, 0.6276, -0.6570, -9.5419, 0.0062, 0.0051, 0.0132, 0.4051, 0.5006, -0.8241, 0.0161, 0.0563, -0.1677, 350, 258797, 0.5000, 0.5000, -1.0000, 0.0000
4.0240, 0.6276, -0.6570, -9.5419, 0.0062, 0.0051, 0.0132, 0.4114, 0.5042, -0.8308, 0.0154, 0.0571, -0.1665, 351, 258797, 0.5000, 0.5000, -1.0000, 0.0000
4.0440, 0.6276, -0.6570, -9.5419, 0.0062, 0.0051, 0.0132, 0.4175, 0.5076, -0.8374, 0.0147, 0.0570, -0.1648, 352, 258797, 0.5000, 0.5000, -1.0000, 0.0000
4.0640, 0.6276, -0.6570, -9.5419, 0.0062, 0.0051, 0.0132, 0.4233, 0.5107, -0.8438, 0.0140, 0.0573, -0.1633, 353, 258797, 0.5000, 0.5000, -1.0000, 0.0000
4.0840, 0.6276, -0.6570, -9.5419, 0.0062, 0.0051, 0.0132, 0.4287, 0.5136, -0.8500, 0.0133, 0.0573, -0.1619, 354, 258797, 0.5000, 0.5000, -1.0000, 0.0000
4.1040, 0.6276, -0.6570, -9.5419, 0.0062, 0.0051, 0.0132, 0.4337, 0.5163, -0.8561, 0.0126, 0.0569, -0.1610, 355, 258797, 0.5000, 0.5000, -1.0000, 0.0000
4.1240, 0.6276, -0.6570, -9.5419, 0.0062, 0.0051, 0.0132, 0.4384, 0.5189, -0.8620, 0.0119, 0.0557, -0.1601, 356, 258797, 0.5000, 0.5000, -1.0000, 0.0000
4.1440, 0.6276, -0.6570, -9.5419, 0.0062, 0.0051, 0.0132, 0.4429, 0.5211, -0.8680, 0.0109, 0.0548, -0.1588, 357, 258797, 0.5000, 0.5000, -1.0000, 0.0000
4.1640, 0.6276, -0.6570, -9.5419, 0.0062, 0.0051, 0.0132, 0.4470, 0.5232, -0.8736, 0.0104, 0.0543, -0.1578, 358, 258797, 0.5000, 0.5000, -1.0000, 0.0000
4.1840, 0.6276, -0.6570, -9.5419, 0.0062, 0.0051, 0.0132, 0.4508, 0.5253, -0.8791, 0.0100, 0.0538, -0.1564, 359, 258797, 0.5000, 0.5000, -1.0000, 0.0000
4.2040, 0.6276, -0.6570, -9.5419, 0.0062, 0.0051, 0.0132, 0.4542, 0.5270, -0.8845, 0.0093, 0.0531, -0.1554, 360, 258797, 0.5000, 0.5000, -1.0000, 0.0000
4.2240, 0.6276, -0.6570, -9.5419, 0.0062, 0.0051, 0.0132, 0.4574, 0.5287, -0.8896, 0.0087, 0.0516, -0.1543, 361, 258797, 0.5000, 0.5000, -1.0000, 0.0000
4.2440, 0.6276, -0.6570, -9.5419, 0.0062, 0.0051, 0.0132, 0.4604, 0.5300, -0.8948, 0.0082, 0.0496, -0.1525, 362, 258797, 0.5000, 0.5000, -1.0000, 0.0000
4.2640, 0.6276, -0.6570, -9.5419, 0.0062, 0.0051, 0.0132, 0.4631, 0.5313, -0.8995, 0.0074, 0.0468, -0.1513, 363, 258797, 0.5000, 0.5000, -1.0000, 0.0000
4.2840, 0.6276, -0.6570, -9.5419, 0.0062, 0.0051, 0.0132, 0.4657, 0.5325, -0.9040, 0.0068, 0.0439, -0.1504, 364, 258797, 0.5000, 0.5000, -1.0000, 0.0000
4.3040, 0.6276, -0.6570, -9.5419, 0.0062, 0.0051, 0.0132, 0.4679, 0.5334, -0.9084, 0.0063, 0.0417, -0.1497, 365, 258797, 0.5000, 0.5000, -1.0000, 0.0000
4.3240, 0.6276, -0.6570, -9.5419, 0.0062, 0.0051, 0.0132, 0.4700, 0.5343, -0.9125, 0.0058, 0.0401, -0.1484, 366, 258797, 0.5000, 0.5000, -1.0000, 0.0000
4.3440, 0.6276, -0.6570, -9.5419, 0.0062, 0.0051, 0.0132, 0.4718, 0.5351, -0.9165, 0.0054, 0.0385, -0.1471, 367, 258797, 0.5000, 0.5000, -1.0000, 0.0000
4.3640, 0.6276, -0.6570, -9.5419, 0.0062, 0.0051, 0.0132, 0.4734, 0.5356, -0.9200, 0.0052, 0.0365, -0.1454, 368, 258797, 0.5000, 0.5000, -1.0000, 0.0000
4.3840, 0.6276, -0.6570, -9.5419, 0.0062, 0.0051, 0.0132, 0.4749, 0.5361, -0.9235, 0.0048, 0.0344, -0.1443, 369, 258797, 0.5000, 0.5000, -1.0000, 0.0000
4.4040, 0.6276, -0.6570, -9.5419, 0.0062, 0.0051, 0.0132, 0.4762, 0.5365, -0.9268, 0.0045, 0.0326, -0.1426, 370, 258797, 0.5000, 0.5000, -1.0000, 0.0000
4.4240, 0.6276, -0.6570, -9.5419, 0.0062, 0.0051, 0.0132, 0.4772, 0.5367, -0.9298, 0.0039, 0.0307, -0.1417, 371, 258797, 0.5000, 0.5000, -1.0000, 0.0000
4.4440, 0.6276, -0.6570, -9.5419, 0.0062, 0.0051, 0.0132, 0.4783, 0.5368, -0.9328, 0.0038, 0.0280, -0.1412, 372, 258797, 0.5000, 0.5000, -1.0000, 0.0000
4.4640, 0.6276, -0.6570, -9.5419, 0.0062, 0.0051, 0.0132, 0.4791, 0.5368, -0.9355, 0.0035, 0.0251, -0.1398, 373, 258797, 0.5000, 0.5000, -1.0000, 0.0000
4.4840, 0.6276, -0.6570, -9.5419, 0.0062, 0.0051, 0.0132, 0.4799, 0.5367, -0.9382, 0.0031, 0.0220, -0.1393, 374, 258797, 0.5000, 0.5000, -1.0000, 0.0000
4.5040, 0.6276, -0.6570, -9.5419, 0.0062, 0.0051, 0.0132, 0.4804, 0.5366, -0.9406, 0.0031, 0.0194, -0.1382, 375, 258797, 0.5000, 0.5000, -1.0000, 0.0000
4.5240, 0.6276, -0.6570, -9.5419, 0.0062, 0.0051, 0.0132, 0.4809, 0.5363, -0.9431, 0.0026, 0.0170, -0.1374, 376, 258797, 0.5000, 0.5000, -1.0000, 0.0000
4.5440, 0.6276, -0.6570, -9.5419, 0.0062, 0.0051, 0.0132, 0.4813, 0.5360, -0.9454, 0.0025, 0.0143, -0.1360, 377, 258797, 0.5000, 0.5000, -1.0000, 0.0000
4.5640, 0.6276, -0.6570, -9.5419, 0.0062, 0.0051, 0.0132, 0.4815, 0.5356, -0.9475, 0.0023, 0.0113, -0.1349, 378, 258797, 0.5000, 0.5000, -1.0000, 0.0000
4.5840, 0.6276, -0.6570, -9.5419, 0.0062, 0.0051, 0.0132, 0.4817, 0.5350, -0.9496, 0.0020, 0.0092, -0.1336, 379, 258797, 0.5000, 0.5000, -1.0000, 0.0000
4.6040, 0.6276, -0.6570, -9.5419, 0.0062, 0.0051, 0.0132, 0.4817, 0.5345, -0.9515, 0.0021, 0.0066, -0.1326, 380, 258797, 0.5000, 0.5000, -1.0000, 0.0000
4.6240, 0.6276, -0.6570, -9.5419, 0.0062, 0.0051, 0.0132, 0.4818, 0.5339, -0.9534, 0.0020, 0.0040, -0.1316, 381, 258797, 0.5000, 0.5000, -1.0000, 0.0000
4.6440, 0.6276, -0.6570, -9.5419, 0.0062, 0.0051, 0.0132, 0.4817, 0.5331, -0.9553, 0.0019, 0.0013, -0.1304, 382, 258797, 0.5000, 0.5000, -1.0000, 0.0000
4.6640, 0.6276, -0.6570, -9.5419, 0.0062, 0.0051, 0.0132, 0.4817, 0.5325, -0.9570, 0.0018, -0.0017, -0.1300, 383, 258797, 0.5000, 0.5000, -1.0000, 0.0000
4.6840, 0.6276, -0.6570, -9.5419, 0.0062, 0.0051, 0.0132, 0.4815, 0.5316, -0.9587, 0.0018, -0.0046, -0.1292, 384, 258797, 0.5000, 0.5000, -1.0000, 0.0000
4.7040, 0.6276, -0.6570, -9.5419, 0.0062, 0.0051, 0.0132, 0.4814, 0.5308, -0.9603, 0.0015, -0.0065, -0.1275, 385, 258797, 0.5000, 0.5000, -1.0000, 0.0000
4.7240, 0.6276, -0.6570, -9.5419, 0.0062, 0.0051, 0.0132, 0.4812, 0.5298, -0.9619, 0.0018, -0.0087, -0.1271, 386, 258797, 0.5000, 0.5000, -1.0000, 0.0000
4.7440, 0.6276, -0.6570, -9.5419, 0.0062, 0.0051, 0.0132, 0.4810, 0.5289, -0.9633, 0.0020, -0.0113, -0.1261, 387, 258797, 0.5000, 0.5000, -1.0000, 0.0000
4.7640, 0.6276, -0.6570, -9.5419, 0.0062, 0.0051, 0.0132, 0.4809, 0.5280, -0.9649, 0.0019, -0.0131, -0.1249, 388, 258797, 0.5000, 0.5000, -1.0000, 0.0000
4.7840, 0.6276, -0.6570, -9.5419, 0.0062, 0.0051, 0.0132, 0.4807, 0.5270, -0.9664, 0.0022, -0.0153, -0.1246, 389, 258797, 0.5000, 0.5000, -1.0000, 0.0000
4.8040, 0.6276, -0.6570, -9.5419, 0.0062, 0.0051, 0.0132, 0.4805, 0.5258, -0.9679, 0.0021, -0.0171, -0.1238, 390, 258797, 0.5000, 0.5000, -1.0000, 0.0000
4.8240, 0.6276, -0.6570, -9.5419, 0.0062, 0.0051, 0.0132, 0.4804, 0.5248, -0.9695, 0.0023, -0.0188, -0.1232, 391, 258797, 0.5000, 0.5000, -1.0000, 0.0000
4.8440, 0.6276, -0.6570, -9.5419, 0.0062, 0.0051, 0.0132, 0.4801, 0.5237, -0.9709, 0.0027, -0.0208, -0.1225, 392, 258797, 0.5000, 0.5000, -1.0000, 0.0000
4.8640, 0.6276, -0.6570, -9.5419, 0.0062, 0.0051, 0.0132, 0.4800, 0.5226, -0.9726, 0.0030, -0.0219, -0.1213, 393, 258797, 0.5000, 0.5000, -1.0000, 0.0000
4.8840, 0.6276, -0.6570, -9.5419, 0.0062, 0.0051, 0.0132, 0.4798, 0.5215, -0.9741, 0.0032, -0.0231, -0.1199, 394, 258797, 0.5000, 0.5000, -1.0000, 0.0000
4.9040, 0.6276, -0.6570, -9.5419, 0.0062, 0.0051, 0.0132, 0.4797, 0.5204, -0.9758, 0.0033, -0.0250, -0.1191, 395, 258797, 0.5000, 0.5000, -1.0000, 0.0000
4.9240, 0.6276, -0.6570, -9.5419, 0.0062, 0.0051, 0.0132, 0.4796, 0.5192, -0.9775, 0.0034, -0.0261, -0.1178, 396, 258797, 0.5000, 0.5000, -1.0000, 0.0000
4.9440, 0.6276, -0.6570, -9.5419, 0.0062, 0.0051, 0.0132, 0.4795, 0.5181, -0.9791, 0.0033, -0.0273, -0.1168, 397, 258797, 0.5000, 0.5000, -1.0000, 0.0000
4.9660, 0.6276, -0.6570, -9.5419, 0.0062, 0.0051, 0.0132, 0.4795, 0.5170, -0.9808, 0.0037, -0.0288, -0.1161, 398, 258797, 0.5000, 0.5000, -1.0000, 0.0000
4.9860, 0.6276, -0.6570, -9.5419, 0.0062, 0.0051, 0.0132, 0.4796, 0.5158, -0.9823, 0.0040, -0.0303, -0.1156, 399, 258797, 0.5000, 0.5000, -1.0000, 0.0000
5.0060, 0.6276, -0.6570, -9.5419, 0.0062, 0.0051, 0.0132, 0.4798, 0.5148, -0.9837, 0.0040, -0.0315, -0.1145, 400, 258797, 0.5000, 0.5000, -1.0000, 0.0000
5.0260, 0.6276, -0.6570, -9.5419, 0.0062, 0.0051, 0.0132, 0.4799, 0.5137, -0.9853, 0.0042, -0.0319, -0.1133, 401, 258797, 0.5000, 0.5000, -1.0000, 0.0000
5.0460, 0.6276, -0.6570, -9.5419, 0.0062, 0.0051, 0.0132, 0.4803, 0.5126, -0.9866, 0.0045, -0.0331, -0.1130, 402, 258797, 0.5000, 0.5000, -1.0000, 0.0000
5.0660, 0.6276, -0.6570, -9.5419, 0.0062, 0.0051, 0.0132, 0.4807, 0.5115, -0.9880, 0.0047, -0.0341, -0.1121, 403, 258797, 0.5000, 0.5000, -1.0000, 0.0000
5.0860, 0.6276, -0.6570, -9.5419, 0.0062, 0.0051, 0.0132, 0.4810, 0.5104, -0.9892, 0.0052, -0.0347, -0.1119, 404, 258797, 0.5000, 0.5000, -1.0000, 0.0000
5.1060, 0.6276, -0.6570, -9.5419, 0.0062, 0.0051, 0.0132, 0.4817, 0.5094, -0.9904, 0.0053, -0.0348, -0.1114, 405, 258797, 0.5000, 0.5000, -1.0000, 0.0000
5.1260, 0.6276, -0.6570, -9.5419, 0.0062, 0.0051, 0.0132, 0.4822, 0.5084, -0.9915, 0.0057, -0.0341, -0.1104, 406, 258797, 0.5000, 0.5000, -1.0000, 0.0000
5.1460, 0.6276, -0.6570, -9.5419, 0.0062, 0.0051, 0.0132, 0.4828, 0.5073, -0.9925, 0.0064, -0.0328, -0.1097, 407, 258797, 0.5000, 0.5000, -1.0000, 0.0000
5.1660, 0.6276, -0.6570, -9.5419, 0.0062, 0.0051, 0.0132, 0.4836, 0.5064, -0.9934, 0.0068, -0.0324, -0.1090, 408, 258797, 0.5000, 0.5000, -1.0000, 0.0000
5.1860, 0.6276, -0.6570, -9.5419, 0.0062, 0.0051, 0.0132, 0.4843, 0.5055, -0.9942, 0.0070, -0.0320, -0.1082, 409, 258797, 0.5000, 0.5000, -1.0000, 0.0000
5.2060, 0.6276, -0.6570, -9.5419, 0.0062, 0.0051, 0.0132, 0.4853, 0.5046, -0.9951, 0.0076, -0.0312, -0.1083, 410, 258797, 0.5000, 0.5000, -1.0000, 0.0000
5.2260, 0.6276, -0.6570, -9.5419, 0.0062, 0.0051, 0.0132, 0.4863, 0.5037, -0.9959, 0.0077, -0.0309, -0.1071, 411, 258797, 0.5000, 0.5000, -1.0000, 0.0000
5.2460, 0.6276, -0.6570, -9.5419, 0.0062, 0.0051, 0.0132, 0.4873, 0.5029, -0.9967, 0.0082, -0.0308, -0.1068, 412, 258797, 0.5000, 0.5000, -1.0000, 0.0000
5.2660, 0.6276, -0.6570, -9.5419, 0.0062, 0.0051, 0.0132, 0.4884, 0.5022, -0.9974, 0.0083, -0.0313, -0.1064, 413, 258797, 0.5000, 0.5000, -1.0000, 0.0000
5.2860, 0.6276, -0.6570, -9.5419, 0.0062, 0.0051, 0.0132, 0.4897, 0.5013, -0.9981, 0.0083, -0.0318, -0.1056, 414, 258797, 0.5000, 0.5000, -1.0000, 0.0000
5.3060, 0.6276, -0.6570, -9.5419, 0.0062, 0.0051, 0.0132, 0.4910, 0.5006, -0.9987, 0.0086, -0.0325, -0.1053, 415, 258797, 0.5000, 0.5000, -1.0000, 0.0000
5.3260, 0.6276, -0.6570, -9.5419, 0.0062, 0.0051, 0.0132, 0.4924, 0.5000, -0.9993, 0.0089, -0.0323, -0.1042, 416, 258797, 0.5000, 0.5000, -1.0000, 0.0000
5.3460, 0.6276, -0.6570, -9.5419, 0.0062, 0.0051, 0.0132, 0.4938, 0.4993, -0.9998, 0.0094, -0.0313, -0.1042, 417, 258797, 0.5000, 0.5000, -1.0000, 0.0000
5.3660, 0.6276, -0.6570, -9.5419, 0.0062, 0.0051, 0.0132, 0.4951, 0.4988, -1.0003, 0.0098, -0.0308, -0.1036, 418, 258797, 0.5000, 0.5000, -1.0000, 0.0000
5.3860, 0.6276, -0.6570, -9.5419, 0.0062, 0.0051, 0.0132, 0.4967, 0.4983, -1.0008, 0.0097, -0.0302, -0.1032, 419, 258797, 0.5000, 0.5000, -1.0000, 0.0000
5.4060, 0.6276, -0.6570, -9.5419, 0.0062, 0.0051, 0.0132, 0.4983, 0.4978, -1.0012, 0.0099, -0.0301, -0.1030, 420, 258797, 0.5000, 0.5000, -1.0000, 0.0000
5.4260, 0.6276, -0.6570, -9.5419, 0.0062, 0.0051, 0.0132, 0.5000, 0.4973, -1.0017, 0.0104, -0.0302, -0.1033, 421, 258797, 0.5000, 0.5000, -1.0000, 0.0000
5.4460, 0.6276, -0.6570, -9.5419, 0.0062, 0.0051, 0.0132, 0.5017, 0.4970, -1.0022, 0.0103, -0.0303, -0.1032, 422, 258797, 0.5000, 0.5000, -1.0000, 0.0000
5.4660, 0.6276, -0.6570, -9.5419, 0.0062, 0.0051, 0.0132, 0.5035, 0.4967, -1.0026, 0.0100, -0.0306, -0.1027, 423, 258797, 0.5000, 0.5000, -1.0000, 0.0000
5.4860, 0.6276, -0.6570, -9.5419, 0.0062, 0.0051, 0.0132, 0.5052, 0.4965, -1.0032, 0.0105, -0.0306, -0.1022, 424, 258797, 0.5000, 0.5000, -1.0000, 0.0000
5.5060, 0.6276, -0.6570, -9.5419, 0.0062, 0.0051, 0.0132, 0.5071, 0.4963, -1.0036, 0.0107, -0.0304, -0.1016, 425, 258797, 0.5000, 0.5000, -1.0000, 0.0000
5.5260, 0.6276, -0.6570, -9.5419, 0.0062, 0.0051, 0.0132, 0.5090, 0.4961, -1.0041, 0.0108, -0.0302, -0.1017, 426, 258797, 0.5000, 0.5000, -1.0000, 0.0000
5.5460, 0.6276, -0.6570, -9.5419, 0.0062, 0.0051, 0.0132, 0.5110, 0.4960, -1.0047, 0.0113, -0.0304, -0.1016, 427, 258797, 0.5000, 0.5000, -1.0000, 0.0000
5.5660, 0.6276, -0.6570, -9.5419, 0.0062, 0.0051, 0.0132, 0.5129, 0.4959, -1.0051, 0.0108, -0.0309, -0.1017, 428, 258797, 0.5000, 0.5000, -1.0000, 0.0000
5.5860, 0.6276, -0.6570, -9.5419, 0.0062, 0.0051, 0.0132, 0.5150, 0.4960, -1.0057, 0.0110, -0.0315, -0.1019, 429, 258797, 0.5000, 0.5000, -1.0000, 0.0000
5.6060, 0.6276, -0.6570, -9.5419, 0.0062, 0.0051, 0.0132, 0.5172, 0.4960, -1.0061, 0.0113, -0.0324, -0.1025, 430, 258797, 0.5000, 0.5000, -1.0000, 0.0000
5.6260, 0.6276, -0.6570, -9.5419, 0.0062, 0.0051, 0.0132, 0.5193, 0.4962, -1.0064, 0.0112, -0.0314, -0.1009, 431, 258797, 0.5000, 0.5000, -1.0000, 0.0000
5.6460, 0.6276, -0.6570, -9.5419, 0.0062, 0.0051, 0.0132, 0.5213, 0.4964, -1.0067, 0.0117, -0.0277, -0.0986, 432, 258797, 0.5000, 0.5000, -1.0000, 0.0000
5.6660, 0.6276, -0.6570, -9.5419, 0.0062, 0.0051, 0.0132, 0.5234, 0.4967, -1.0069, 0.0122, -0.0243, -0.0970, 433, 258797, 0.5000, 0.5000, -1.0000, 0.0000
5.6860, 0.6276, -0.6570, -9.5419, 0.0062, 0.0051, 0.0132, 0.5256, 0.4971, -1.0072, 0.0125, -0.0217, -0.0973, 434, 258797, 0.5000, 0.5000, -1.0000, 0.0000
5.7060, 0.6276, -0.6570, -9.5419, 0.0062, 0.0051, 0.0132, 0.5278, 0.4973, -1.0074, 0.0128, -0.0195, -0.0974, 435, 258797, 0.5000, 0.5000, -1.0000, 0.0000
5.7260, 0.6276, -0.6570, -9.5419, 0.0062, 0.0051, 0.0132, 0.5300, 0.4977, -1.0076, 0.0129, -0.0177, -0.0983, 436, 258797, 0.5000, 0.5000, -1.0000, 0.0000
5.7460, 0.6276, -0.6570, -9.5419, 0.0062, 0.0051, 0.0132, 0.5322, 0.4983, -1.0079, 0.0127, -0.0163, -0.0986, 437, 258797, 0.5000, 0.5000, -1.0000, 0.0000
5.7660, 0.6276, -0.6570, -9.5419, 0.0062, 0.0051, 0.0132, 0.5345, 0.4987, -1.0079, 0.0132, -0.0141, -0.0988, 438, 258797, 0.5000, 0.5000, -1.0000, 0.0000
5.7870, 0.6276, -0.6570, -9.5419, 0.0062, 0.0051, 0.0132, 0.5367, 0.4994, -1.0081, 0.0131, -0.0123, -0.0994, 439, 258797, 0.5000, 0.5000, -1.0000, 0.0000
5.8070, 0.6276, -0.6570, -9.5419, 0.0062, 0.0051, 0.0132, 0.5389, 0.5001, -1.0082, 0.0132, -0.0108, -0.0985, 440, 258797, 0.5000, 0.5000, -1.0000, 0.0000
5.8270, 0.6276, -0.6570, -9.5419, 0.0062, 0.0051, 0.0132, 0.5412, 0.5008, -1.0083, 0.0131, -0.0091, -0.0989, 441, 258797, 0.5000, 0.5000, -1.0000, 0.0000
5.8470, 0.6276, -0.6570, -9.5419, 0.0062, 0.0051, 0.0132, 0.5433, 0.5016, -1.0084, 0.0132, -0.0076, -0.0988, 442, 258797, 0.5000, 0.5000, -1.0000, 0.0000
5.8670, 0.6276, -0.6570, -9.5419, 0.0062, 0.0051, 0.0132, 0.5456, 0.5024, -1.0085, 0.0129, -0.0056, -0.0996, 443, 258797, 0.5000, 0.5000, -1.0000, 0.0000
5.8870, 0.6276, -0.6570, -9.5419, 0.0062, 0.0051, 0.0132, 0.5476, 0.5033, -1.0085, 0.0128, -0.0042, -0.0997, 444, 258797, 0.5000, 0.5000, -1.0000, 0.0000
5.9070, 0.6276, -0.6570, -9.5419, 0.0062, 0.0051, 0.0132, 0.5498, 0.5043, -1.0086, 0.0128, -0.0031, -0.1002, 445, 258797, 0.5000, 0.5000, -1.0000, 0.0000
5.9270, 0.6276, -0.6570, -9.5419, 0.0062, 0.0051, 0.0132, 0.5518, 0.5051, -1.0086, 0.0125, -0.0014, -0.1007, 446, 258797, 0.5000, 0.5000, -1.0000, 0.0000
5.9470, 0.6276, -0.6570, -9.5419, 0.0062, 0.0051, 0.0132, 0.5537, 0.5062, -1.0085, 0.0122, -0.0001, -0.1014, 447, 258797, 0.5000, 0.5000, -1.0000, 0.0000
5.9670, 0.6276, -0.6570, -9.5419, 0.0062, 0.0051, 0.0132, 0.5557, 0.5073, -1.0086, 0.0121, 0.0015, -0.1015, 448, 258797, 0.5000, 0.5000, -1.0000, 0.0000
5.9870, 0.6276, -0.6570, -9.5419, 0.0062, 0.0051, 0.0132, 0.5576, 0.5085, -1.0085, 0.0119, 0.0019, -0.1019, 449, 258797, 0.5000, 0.5000, -1.0000, 0.0000
6.0070, 0.6276, -0.6570, -9.5419, 0.0062, 0.0051, 0.0132, 0.5593, 0.5095, -1.0085, 0.0117, 0.0026, -0.1033, 450, 258797, 0.5000, 0.5000, -1.0000, 0.0000
6.0270, 0.6276, -0.6570, -9.5419, 0.0062, 0.0051, 0.0132, 0.5611, 0.5107, -1.0085, 0.0115, 0.0036, -0.1044, 451, 258797, 0.5000, 0.5000, -1.0000, 0.0000
6.0470, 0.6276, -0.6570, -9.5419, 0.0062, 0.0051, 0.0132, 0.5628, 0.5119, -1.0084, 0.0113, 0.0043, -0.1047, 452, 258797, 0.5000, 0.5000, -1.0000, 0.0000
6.0670, 0.6276, -0.6570, -9.5419, 0.0062, 0.0051, 0.0132, 0.5644, 0.5131, -1.0084, 0.0112, 0.0052, -0.1056, 453, 258797, 0.5000, 0.5000, -1.0000, 0.0000
6.0870, 0.6276, -0.6570, -9.5419, 0.0062, 0.0051, 0.0132, 0.5659, 0.5144, -1.0083, 0.0111, 0.0066, -0.1064, 454, 258797, 0.5000, 0.5000, -1.0000, 0.0000
6.1070, 0.6276, -0.6570, -9.5419, 0.0062, 0.0051, 0.0132, 0.5673, 0.5156, -1.0083, 0.0111, 0.0080, -0.1074, 455, 258797, 0.5000, 0.5000, -1.0000, 0.0000
6.1270, 0.6276, -0.6570, -9.5419, 0.0062, 0.0051, 0.0132, 0.5687, 0.5169, -1.0082, 0.0110, 0.0087, -0.1083, 456, 258797, 0.5000, 0.5000, -1.0000, 0.0000
6.1470, 0.6276, -0.6570, -9.5419, 0.0062, 0.0051, 0.0132, 0.5700, 0.5182, -1.0081, 0.0108, 0.0095, -0.1095, 457, 258797, 0.5000, 0.5000, -1.0000, 0.0000
6.1670, 0.6276, -0.6570, -9.5419, 0.0062, 0.0051, 0.0132, 0.5713, 0.5195, -1.0082, 0.0106, 0.0098, -0.1098, 458, 258797, 0.5000, 0.5000, -1.0000, 0.0000
6.1870, 0.6276, -0.6570, -9.5419, 0.0062, 0.0051, 0.0132, 0.5724, 0.5209, -1.0080, 0.0107, 0.0100, -0.1105, 459, 258797, 0.5000, 0.5000, -1.0000, 0.0000
6.2070, 0.6276, -0.6570, -9.5419, 0.0062, 0.0051, 0.0132, 0.5735, 0.5222, -1.0081, 0.0102, 0.0104, -0.1113, 460, 258797, 0.5000, 0.5000, -1.0000, 0.0000
6.2270, 0.6276, -0.6570, -9.5419, 0.0062, 0.0051, 0.0132, 0.5744, 0.5235, -1.0080, 0.0100, 0.0102, -0.1121, 461, 258797, 0.5000, 0.5000, -1.0000, 0.0000
6.2470, 0.6276, -0.6570, -9.5419, 0.0062, 0.0051, 0.0132, 0.5753, 0.5249, -1.0079, 0.0099, 0.0108, -0.1136, 462, 258797, 0.5000, 0.5000, -1.0000, 0.0000
6.2670, 0.6276, -0.6570, -9.5419, 0.0062, 0.0051, 0.0132, 0.5761, 0.5261, -1.0080, 0.0097, 0.0114, -0.1145, 463, 258797, 0.5000, 0.5000, -1.0000, 0.0000
6.2870, 0.6276, -0.6570, -9.5419, 0.0062, 0.0051, 0.0132, 0.5768, 0.5274, -1.0078, 0.0095, 0.0116, -0.1160, 464, 258797, 0.5000, 0.5000, -1.0000, 0.0000
6.3070, 0.6276, -0.6570, -9.5419, 0.0062, 0.0051, 0.0132, 0.5774, 0.5287, -1.0080, 0.0094, 0.0119, -0.1168, 465, 258797, 0.5000, 0.5000, -1.0000, 0.0000
6.3270, 0.6276, -0.6570, -9.5419, 0.0062, 0.0051, 0.0132, 0.5779, 0.5300, -1.0078, 0.0089, 0.0116, -0.1178, 466, 258797, 0.5000, 0.5000, -1.0000, 0.0000
6.3470, 0.6276, -0.6570, -9.5419, 0.0062, 0.0051, 0.0132, 0.5784, 0.5312, -1.0078, 0.0089, 0.0118, -0.1189, 467, 258797, 0.5000, 0.5000, -1.0000, 0.0000
6.3670, 0.6276, -0.6570, -9.5419, 0.0062, 0.0051, 0.0132, 0.5787, 0.5324, -1.0078, 0.0088, 0.0120, -0.1203, 468, 258797, 0.5000, 0.5000, -1.0000, 0.0000
6.3870, 0.6276, -0.6570, -9.5419, 0.0062, 0.0051, 0.0132, 0.5789, 0.5335, -1.0078, 0.0086, 0.0121, -0.1211, 469, 258797, 0.5000, 0.5000, -1.0000, 0.0000
6.4070, 0.6276, -0.6570, -9.5419, 0.0062, 0.0051, 0.0132, 0.5792, 0.5348, -1.0078, 0.0084, 0.0120, -0.1221, 470, 258797, 0.5000, 0.5000, -1.0000, 0.0000
6.4270, 0.6276, -0.6570, -9.5419, 0.0062, 0.0051, 0.0132, 0.5793, 0.5359, -1.0077, 0.0082, 0.0112, -0.1235, 471, 258797, 0.5000, 0.5000, -1.0000, 0.0000
6.4470, 0.6276, -0.6570, -9.5419, 0.0062, 0.0051, 0.0132, 0.5793, 0.5369, -1.0078, 0.0078, 0.0105, -0.1247, 472, 258797, 0.5000, 0.5000, -1.0000, 0.0000
6.4670, 0.6276, -0.6570, -9.5419, 0.0062, 0.0051, 0.0132, 0.5793, 0.5378, -1.0077, 0.0078, 0.0097, -0.1253, 473, 258797, 0.5000, 0.5000, -1.0000, 0.0000
6.4870, 0.6276, -0.6570, -9.5419, 0.0062, 0.0051, 0.0132, 0.5792, 0.5388, -1.0078, 0.0075, 0.0088, -0.1264, 474, 258797, 0.5000, 0.5000, -1.0000, 0.0000
6.5070, 0.6276, -0.6570, -9.5419, 0.0062, 0.0051, 0.0132, 0.5790, 0.5397, -1.0078, 0.0075, 0.0082, -0.1273, 475, 258797, 0.5000, 0.5000, -1.0000, 0.0000
6.5270, 0.6276, -0.6570, -9.5419, 0.0062, 0.0051, 0.0132, 0.5787, 0.5406, -1.0078, 0.0074, 0.0075, -0.1274, 476, 258797, 0.5000, 0.5000, -1.0000, 0.0000
6.5470, 0.6276, -0.6570, -9.5419, 0.0062, 0.0051, 0.0132, 0.5785, 0.5414, -1.0079, 0.0070, 0.0067, -0.1279, 477, 258797, 0.5000, 0.5000, -1.0000, 0.0000
6.5670, 0.6276, -0.6570, -9.5419, 0.0062, 0.0051, 0.0132, 0.5781, 0.5421, -1.0079, 0.0070, 0.0056, -0.1283, 478, 258797, 0.5000, 0.5000, -1.0000, 0.0000
6.5870, 0.6276, -0.6570, -9.5419, 0.0062, 0.0051, 0.0132, 0.5777, 0.5428, -1.0081, 0.0069, 0.0047, -0.1288, 479, 258797, 0.5000, 0.5000, -1.0000, 0.0000
6.6070, 0.6276, -0.6570, -9.5419, 0.0062, 0.0051, 0.0132, 0.5772, 0.5434, -1.0081, 0.0068, 0.0036, -0.1295, 480, 258797, 0.5000, 0.5000, -1.0000, 0.0000
6.6270, 0.6276, -0.6570, -9.5419, 0.0062, 0.0051, 0.0132, 0.5766, 0.5440, -1.0082, 0.0066, 0.0032, -0.1299, 481, 258797, 0.5000, 0.5000, -1.0000, 0.0000
6.6470, 0.6276, -0.6570, -9.5419, 0.0062, 0.0051, 0.0132, 0.5760, 0.5445, -1.0082, 0.0065, 0.0032, -0.1301, 482, 258797, 0.5000, 0.5000, -1.0000, 0.0000
6.6670, 0.6276, -0.6570, -9.5419, 0.0062, 0.0051, 0.0132, 0.5754, 0.5449, -1.0083, 0.0067, 0.0025, -0.1305, 483, 258797, 0.5000, 0.5000, -1.0000, 0.0000
6.6870, 0.6276, -0.6570, -9.5419, 0.0062, 0.0051, 0.0132, 0.5748, 0.5452, -1.0084, 0.0064, 0.0013, -0.1310, 484, 258797, 0.5000, 0.5000, -1.0000, 0.0000
6.7070, 0.6276, -0.6570, -9.5419, 0.0062, 0.0051, 0.0132, 0.5741, 0.5456, -1.0084, 0.0064, 0.0003, -0.1310, 485, 258797, 0.5000, 0.5000, -1.0000, 0.0000
6.7270, 0.6276, -0.6570, -9.5419, 0.0062, 0.0051, 0.0132, 0.5735, 0.5458, -1.0085, 0.0062, -0.0011, -0.1305, 486, 258797, 0.5000, 0.5000, -1.0000, 0.0000
6.7470, 0.6276, -0.6570, -9.5419, 0.0062, 0.0051, 0.0132, 0.5728, 0.5459, -1.0086, 0.0060, -0.0020, -0.1304, 487, 258797, 0.5000, 0.5000, -1.0000, 0.0000
6.7670, 0.6276, -0.6570, -9.5419, 0.0062, 0.0051, 0.0132, 0.5720, 0.5461, -1.0086, 0.0060, -0.0030, -0.1307, 488, 258797, 0.5000, 0.5000, -1.0000, 0.0000
6.7870, 0.6276, -0.6570, -9.5419, 0.0062, 0.0051, 0.0132, 0.5712, 0.5462, -1.0087, 0.0059, -0.0037, -0.1307, 489, 258797, 0.5000, 0.5000, -1.0000, 0.0000
6.8070, 0.6276, -0.6570, -9.5419, 0.0062, 0.0051, 0.0132, 0.5705, 0.5463, -1.0088, 0.0059, -0.0045, -0.1305, 490, 258797, 0.5000, 0.5000, -1.0000, 0.0000
6.8270, 0.6276, -0.6570, -9.5419, 0.0062, 0.0051, 0.0132, 0.5696, 0.5461, -1.0089, 0.0056, -0.0060, -0.1308, 491, 258797, 0.5000, 0.5000, -1.0000, 0.0000
6.8470, 0.6276, -0.6570, -9.5419, 0.0062, 0.0051, 0.0132, 0.5688, 0.5459, -1.0089, 0.0055, -0.0077, -0.1308, 492, 258797, 0.5000, 0.5000, -1.0000, 0.0000
6.8670, 0.6276, -0.6570, -9.5419, 0.0062, 0.0051, 0.0132, 0.5681, 0.5458, -1.0090, 0.0051, -0.0085, -0.1310, 493, 258797, 0.5000, 0.5000, -1.0000, 0.0000
6.8870, 0.6276, -0.6570, -9.5419, 0.0062, 0.0051, 0.0132, 0.5673, 0.5455, -1.0090, 0.0053, -0.0093, -0.1311, 494, 258797, 0.5000, 0.5000, -1.0000, 0.0000
6.9070, 0.6276, -0.6570, -9.5419, 0.0062, 0.0051, 0.0132, 0.5665, 0.5452, -1.0089, 0.0052, -0.0098, -0.1310, 495, 258797, 0.5000, 0.5000, -1.0000, 0.0000
6.9270, 0.6276, -0.6570, -9.5419, 0.0062, 0.0051, 0.0132, 0.5657, 0.5448, -1.0089, 0.0048, -0.0098, -0.1309, 496, 258797, 0.5000, 0.5000, -1.0000, 0.0000
6.9470, 0.6276, -0.6570, -9.5419, 0.0062, 0.0051, 0.0132, 0.5649, 0.5444, -1.0088, 0.0050, -0.0107, -0.1309, 497, 258797, 0.5000, 0.5000, -1.0000, 0.0000
6.9670, 0.6276, -0.6570, -9.5419, 0.0062, 0.0051, 0.0132, 0.5643, 0.5438, -1.0086, 0.0047, -0.0119, -0.1301, 498, 258797, 0.5000, 0.5000, -1.0000, 0.0000
6.9870, 0.6276, -0.6570, -9.5419, 0.0062, 0.0051, 0.0132, 0.5636, 0.5433, -1.0085, 0.0045, -0.0138, -0.1297, 499, 258797, 0.5000, 0.5000, -1.0000, 0.0000
7.0070, 0.6276, -0.6570, -9.5419, 0.0062, 0.0051, 0.0132, 0.5629, 0.5426, -1.0083, 0.0043, -0.0153, -0.1295, 500, 258797, 0.5000, 0.5000, -1.0000, 0.0000
7.0270, 0.6276, -0.6570, -9.5419, 0.0062, 0.0051, 0.0132, 0.5623, 0.5420, -1.0082, 0.0042, -0.0169, -0.1290, 501, 258797, 0.5000, 0.5000, -1.0000, 0.0000
7.0470, 0.6276, -0.6570, -9.5419, 0.0062, 0.0051, 0.0132, 0.5617, 0.5412, -1.0079, 0.0039, -0.0188, -0.1289, 502, 258797, 0.5000, 0.5000, -1.0000, 0.0000
7.0670, 0.6276, -0.6570, -9.5419, 0.0062, 0.0051, 0.0132, 0.5611, 0.5405, -1.0077, 0.0039, -0.0193, -0.1283, 503, 258797, 0.5000, 0.5000, -1.0000, 0.0000
7.0870, 0.6276, -0.6570, -9.5419, 0.0062, 0.0051, 0.0132, 0.5605, 0.5396, -1.0074, 0.0039, -0.0191, -0.1274, 504, 258797, 0.5000, 0.5000, -1.0000, 0.0000
7.1070, 0.6276, -0.6570, -9.5419, 0.0062, 0.0051, 0.0132, 0.5601, 0.5388, -1.0072, 0.0039, -0.0188, -0.1266, 505, 258797, 0.5000, 0.5000, -1.0000, 0.0000
7.1270, 0.6276, -0.6570, -9.5419, 0.0062, 0.0051, 0.0132, 0.5595, 0.5378, -1.0068, 0.0039, -0.0193, -0.1257, 506, 258797, 0.5000, 0.5000, -1.0000, 0.0000
7.1470, 0.6276, -0.6570, -9.5419, 0.0062, 0.0051, 0.0132, 0.5591, 0.5369, -1.0066, 0.0039, -0.0203, -0.1247, 507, 258797, 0.5000, 0.5000, -1.0000, 0.0000
7.1670, 0.6276, -0.6570, -9.5419, 0.0062, 0.0051, 0.0132, 0.5588, 0.5359, -1.0063, 0.0037, -0.0214, -0.1241, 508, 258797, 0.5000, 0.5000, -1.0000, 0.0000
7.1870, 0.6276, -0.6570, -9.5419, 0.0062, 0.0051, 0.0132, 0.5585, 0.5349, -1.0059, 0.0035, -0.0228, -0.1231, 509, 258797, 0.5000, 0.5000, -1.0000, 0.0000
7.2070, 0.6276, -0.6570, -9.5419, 0.0062, 0.0051, 0.0132, 0.5583, 0.5339, -1.0057, 0.0040, -0.0227, -0.1222, 510, 258797, 0.5000, 0.5000, -1.0000, 0.0000
7.2270, 0.6276, -0.6570, -9.5419, 0.0062, 0.0051, 0.0132, 0.5581, 0.5328, -1.0054, 0.0038, -0.0232, -0.1211, 511, 258797, 0.5000, 0.5000, -1.0000, 0.0000
7.2470, 0.6276, -0.6570, -9.5419, 0.0062, 0.0051, 0.0132, 0.5580, 0.5317, -1.0050, 0.0037, -0.0236, -0.1196, 512, 258797, 0.5000, 0.5000, -1.0000, 0.0000
7.2670, 0.6276, -0.6570, -9.5419, 0.0062, 0.0051, 0.0132, 0.5579, 0.5306, -1.0047, 0.0038, -0.0232, -0.1184, 513, 258797, 0.5000, 0.5000, -1.0000, 0.0000
7.2870, 0.6276, -0.6570, -9.5419, 0.0062, 0.0051, 0.0132, 0.5578, 0.5295, -1.0043, 0.0037, -0.0237, -0.1169, 514, 258797, 0.5000, 0.5000, -1.0000, 0.0000
7.3070, 0.6276, -0.6570, -9.5419, 0.0062, 0.0051, 0.0132, 0.5579, 0.5284, -1.0041, 0.0036, -0.0236, -0.1158, 515, 258797, 0.5000, 0.5000, -1.0000, 0.0000
7.3270, 0.6276, -0.6570, -9.5419, 0.0062, 0.0051, 0.0132, 0.5579, 0.5273, -1.0038, 0.0037, -0.0235, -0.1145, 516, 258797, 0.5000, 0.5000, -1.0000, 0.0000
7.3470, 0.6276, -0.6570, -9.5419, 0.0062, 0.0051, 0.0132, 0.5581, 0.5262, -1.0035, 0.0035, -0.0238, -0.1132, 517, 258797, 0.5000, 0.5000, -1.0000, 0.0000
7.3670, 0.6276, -0.6570, -9.5419, 0.0062, 0.0051, 0.0132, 0.5584, 0.5251, -1.0033, 0.0035, -0.0242, -0.1117, 518, 258797, 0.5000, 0.5000, -1.0000, 0.0000
7.3870, 0.6276, -0.6570, -9.5419, 0.0062, 0.0051, 0.0132, 0.5586, 0.5240, -1.0029, 0.0036, -0.0242, -0.1109, 519, 258797, 0.5000, 0.5000, -1.0000, 0.0000
7.4070, 0.6276, -0.6570, -9.5419, 0.0062, 0.0051, 0.0132, 0.5590, 0.5230, -1.0028, 0.0035, -0.0236, -0.1097, 520, 258797, 0.5000, 0.5000, -1.0000, 0.0000
7.4270, 0.6276, -0.6570, -9.5419, 0.0062, 0.0051, 0.0132, 0.5594, 0.5220, -1.0024, 0.0035, -0.0236, -0.1082, 521, 258797, 0.5000, 0.5000, -1.0000, 0.0000
7.4470, 0.6276, -0.6570, -9.5419, 0.0062, 0.0051, 0.0132, 0.5598, 0.5210, -1.0023, 0.0037, -0.0232, -0.1075, 522, 258797, 0.5000, 0.5000, -1.0000, 0.0000
7.4670, 0.6276, -0.6570, -9.5419, 0.0062, 0.0051, 0.0132, 0.5602, 0.5200, -1.0020, 0.0036, -0.0230, -0.1064, 523, 258797, 0.5000, 0.5000, -1.0000, 0.0000
7.4870, 0.6276, -0.6570, -9.5419, 0.0062, 0.0051, 0.0132, 0.5607, 0.5191, -1.0017, 0.0034, -0.0226, -0.1060, 524, 258797, 0.5000, 0.5000, -1.0000, 0.0000
7.5070, 0.6276, -0.6570, -9.5419, 0.0062, 0.0051, 0.0132, 0.5613, 0.5183, -1.0016, 0.0035, -0.0227, -0.1053, 525, 258797, 0.5000, 0.5000, -1.0000, 0.0000
7.5270, 0.6276, -0.6570, -9.5419, 0.0062, 0.0051, 0.0132, 0.5620, 0.5173, -1.0014, 0.0035, -0.0220, -0.1047, 526, 258797, 0.5000, 0.5000, -1.0000, 0.0000
7.5470, 0.6276, -0.6570, -9.5419, 0.0062, 0.0051, 0.0132, 0.5626, 0.5166, -1.0013, 0.0034, -0.0212, -0.1042, 527, 258797, 0.5000, 0.5000, -1.0000, 0.0000
7.5670, 0.6276, -0.6570, -9.5419, 0.0062, 0.0051, 0.0132, 0.5634, 0.5159, -1.0011, 0.0033, -0.0210, -0.1033, 528, 258797, 0.5000, 0.5000, -1.0000, 0.0000
7.5870, 0.6276, -0.6570, -9.5419, 0.0062, 0.0051, 0.0132, 0.5642, 0.5151, -1.0010, 0.0033, -0.0206, -0.1022, 529, 258797, 0.5000, 0.5000, -1.0000, 0.0000
7.6070, 0.6276, -0.6570, -9.5419, 0.0062, 0.0051, 0.0132, 0.5650, 0.5146, -1.0008, 0.0033, -0.0205, -0.1020, 530, 258797, 0.5000, 0.5000, -1.0000, 0.0000
7.6270, 0.6276, -0.6570, -9.5419, 0.0062, 0.0051, 0.0132, 0.5659, 0.5140, -1.0007, 0.0033, -0.0205, -0.1007, 531, 258797, 0.5000, 0.5000, -1.0000, 0.0000
7.6470, 0.6276, -0.6570, -9.5419, 0.0062, 0.0051, 0.0132, 0.5667, 0.5134, -1.0006, 0.0033, -0.0202, -0.0996, 532, 258797, 0.5000, 0.5000, -1.0000, 0.0000
7.6670, 0.6276, -0.6570, -9.5419, 0.0062, 0.0051, 0.0132, 0.5677, 0.5130, -1.0006, 0.0033, -0.0197, -0.0994, 533, 258797, 0.5000, 0.5000, -1.0000, 0.0000
7.6870, 0.6276, -0.6570, -9.5419, 0.0062, 0.0051, 0.0132, 0.5687, 0.5125, -1.0004, 0.0035, -0.0189, -0.0998, 534, 258797, 0.5000, 0.5000, -1.0000, 0.0000
7.7070, 0.6276, -0.6570, -9.5419, 0.0062, 0.0051, 0.0132, 0.5696, 0.5121, -1.0004, 0.0037, -0.0178, -0.0996, 535, 258797, 0.5000, 0.5000, -1.0000, 0.0000
7.7270, 0.6276, -0.6570, -9.5419, 0.0062, 0.0051, 0.0132, 0.5707, 0.5118, -1.0004, 0.0035, -0.0163, -0.0991, 536, 258797, 0.5000, 0.5000, -1.0000, 0.0000
7.7470, 0.6276, -0.6570, -9.5419, 0.0062, 0.0051, 0.0132, 0.5717, 0.5116, -1.0002, 0.0035, -0.0154, -0.0987, 537, 258797, 0.5000, 0.5000, -1.0000, 0.0000
7.7670, 0.6276, -0.6570, -9.5419, 0.0062, 0.0051, 0.0132, 0.5728, 0.5115, -1.0002, 0.0037, -0.0147, -0.0981, 538, 258797, 0.5000, 0.5000, -1.0000, 0.0000
7.7890, 0.6276, -0.6570, -9.5419, 0.0062, 0.0051, 0.0132, 0.5740, 0.5113, -1.0002, 0.0036, -0.0136, -0.0979, 539, 258797, 0.5000, 0.5000, -1.0000, 0.0000
7.8090, 0.6276, -0.6570, -9.5419, 0.0062, 0.0051, 0.0132, 0.5750, 0.5113, -1.0000, 0.0036, -0.0128, -0.0976, 540, 258797, 0.5000, 0.5000, -1.0000, 0.0000
7.8290, 0.6276, -0.6570, -9.5419, 0.0062, 0.0051, 0.0132, 0.5762, 0.5113, -1.0001, 0.0038, -0.0113, -0.0972, 541, 258797, 0.5000, 0.5000, -1.0000, 0.0000
7.8490, 0.6276, -0.6570, -9.5419, 0.0062, 0.0051, 0.0132, 0.5773, 0.5115, -1.0000, 0.0040, -0.0107, -0.0968, 542, 258797, 0.5000, 0.5000, -1.0000, 0.0000
7.8690, 0.6276, -0.6570, -9.5419, 0.0062, 0.0051, 0.0132, 0.5784, 0.5116, -1.0000, 0.0040, -0.0100, -0.0969, 543, 258797, 0.5000, 0.5000, -1.0000, 0.0000
7.8890, 0.6276, -0.6570, -9.5419, 0.0062, 0.0051, 0.0132, 0.5797, 0.5119, -0.9999, 0.0043, -0.0088, -0.0979, 544, 258797, 0.5000, 0.5000, -1.0000, 0.0000
7.9090, 0.6276, -0.6570, -9.5419, 0.0062, 0.0051, 0.0132, 0.5808, 0.5121, -0.9999, 0.0044, -0.0081, -0.0987, 545, 258797, 0.5000, 0.5000, -1.0000, 0.0000
7.9290, 0.6276, -0.6570, -9.5419, 0.0062, 0.0051, 0.0132, 0.5820, 0.5124, -1.0000, 0.0045, -0.0074, -0.0988, 546, 258797, 0.5000, 0.5000, -1.0000, 0.0000
7.9490, 0.6276, -0.6570, -9.5419, 0.0062, 0.0051, 0.0132, 0.5831, 0.5128, -0.9999, 0.0047, -0.0065, -0.0995, 547, 258797, 0.5000, 0.5000, -1.0000, 0.0000
7.9690, 0.6276, -0.6570, -9.5419, 0.0062, 0.0051, 0.0132, 0.5841, 0.5132, -1.0000, 0.0045, -0.0059, -0.0997, 548, 258797, 0.5000, 0.5000, -1.0000, 0.0000
7.9890, 0.6276, -0.6570, -9.5419, 0.0062, 0.0051, 0.0132, 0.5852, 0.5137, -1.0000, 0.0044, -0.0049, -0.0995, 549, 258797, 0.5000, 0.5000, -1.0000, 0.0000
8.0090, 0.6276, -0.6570, -9.5419, 0.0062, 0.0051, 0.0132, 0.5862, 0.5143, -0.9999, 0.0048, -0.0036, -0.1003, 550, 258797, 0.5000, 0.5000, -1.0000, 0.0000
8.0290, 0.6276, -0.6570, -9.5419, 0.0062, 0.0051, 0.0132, 0.5873, 0.5149, -1.0000, 0.0047, -0.0031, -0.1005, 551, 258797, 0.5000, 0.5000, -1.0000, 0.0000
8.0490, 0.6276, -0.6570, -9.5419, 0.0062, 0.0051, 0.0132, 0.5883, 0.5155, -1.0000, 0.0047, -0.0023, -0.1011, 552, 258797, 0.5000, 0.5000, -1.0000, 0.0000
8.0690, 0.6276, -0.6570, -9.5419, 0.0062, 0.0051, 0.0132, 0.5893, 0.5162, -1.0001, 0.0049, -0.0017, -0.1024, 553, 258797, 0.5000, 0.5000, -1.0000, 0.0000
8.0890, 0.6276, -0.6570, -9.5419, 0.0062, 0.0051, 0.0132, 0.5903, 0.5169, -1.0000, 0.0046, -0.0015, -0.1025, 554, 258797, 0.5000, 0.5000, -1.0000, 0.0000
8.1090, 0.6276, -0.6570, -9.5419, 0.0062, 0.0051, 0.0132, 0.5912, 0.5177, -1.0000, 0.0046, -0.0008, -0.1029, 555, 258797, 0.5000, 0.5000, -1.0000, 0.0000
8.1290, 0.6276, -0.6570, -9.5419, 0.0062, 0.0051, 0.0132, 0.5921, 0.5185, -1.0001, 0.0046, -0.0005, -0.1031, 556, 258797, 0.5000, 0.5000, -1.0000, 0.0000
8.1490, 0.6276, -0.6570, -9.5419, 0.0062, 0.0051, 0.0132, 0.5930, 0.5194, -1.0000, 0.0045, 0.0001, -0.1030, 557, 258797, 0.5000, 0.5000, -1.0000, 0.0000
8.1690, 0.6276, -0.6570, -9.5419, 0.0062, 0.0051, 0.0132, 0.5938, 0.5203, -1.0001, 0.0043, 0.0015, -0.1033, 558, 258797, 0.5000, 0.5000, -1.0000, 0.0000
8.1890, 0.6276, -0.6570, -9.5419, 0.0062, 0.0051, 0.0132, 0.5946, 0.5212, -1.0001, 0.0042, 0.0020, -0.1033, 559, 258797, 0.5000, 0.5000, -1.0000, 0.0000
8.2090, 0.6276, -0.6570, -9.5419, 0.0062, 0.0051, 0.0132, 0.5954, 0.5222, -1.0001, 0.0042, 0.0024, -0.1044, 560, 258797, 0.5000, 0.5000, -1.0000, 0.0000
8.2290, 0.6276, -0.6570, -9.5419, 0.0062, 0.0051, 0.0132, 0.5962, 0.5232, -1.0002, 0.0040, 0.0026, -0.1050, 561, 258797, 0.5000, 0.5000, -1.0000, 0.0000
8.2490, 0.6276, -0.6570, -9.5419, 0.0062, 0.0051, 0.0132, 0.5968, 0.5242, -1.0002, 0.0041, 0.0032, -0.1058, 562, 258797, 0.5000, 0.5000, -1.0000, 0.0000
8.2690, 0.6276, -0.6570, -9.5419, 0.0062, 0.0051, 0.0132, 0.5974, 0.5252, -1.0003, 0.0039, 0.0039, -0.1068, 563, 258797, 0.5000, 0.5000, -1.0000, 0.0000
8.2890, 0.6276, -0.6570, -9.5419, 0.0062, 0.0051, 0.0132, 0.5980, 0.5263, -1.0002, 0.0037, 0.0036, -0.1075, 564, 258797, 0.5000, 0.5000, -1.0000, 0.0000
8.3090, 0.6276, -0.6570, -9.5419, 0.0062, 0.0051, 0.0132, 0.5986, 0.5274, -1.0004, 0.0035, 0.0038, -0.1081, 565, 258797, 0.5000, 0.5000, -1.0000, 0.0000
8.3290, 0.6276, -0.6570, -9.5419, 0.0062, 0.0051, 0.0132, 0.5991, 0.5285, -1.0004, 0.0037, 0.0042, -0.1086, 566, 258797, 0.5000, 0.5000, -1.0000, 0.0000
8.3490, 0.6276, -0.6570, -9.5419, 0.0062, 0.0051, 0.0132, 0.5995, 0.5297, -1.0004, 0.0035, 0.0048, -0.1092, 567, 258797, 0.5000, 0.5000, -1.0000, 0.0000
8.3690, 0.6276, -0.6570, -9.5419, 0.0062, 0.0051, 0.0132, 0.5999, 0.5308, -1.0004, 0.0037, 0.0054, -0.1097, 568, 258797, 0.5000, 0.5000, -1.0000, 0.0000
8.3890, 0.6276, -0.6570, -9.5419, 0.0062, 0.0051, 0.0132, 0.6002, 0.5320, -1.0005, 0.0038, 0.0056, -0.1097, 569, 258797, 0.5000, 0.5000, -1.0000, 0.0000
8.4090, 0.6276, -0.6570, -9.5419, 0.0062, 0.0051, 0.0132, 0.6006, 0.5332, -1.0006, 0.0034, 0.0060, -0.1109, 570, 258797, 0.5000, 0.5000, -1.0000, 0.0000
8.4290, 0.6276, -0.6570, -9.5419, 0.0062, 0.0051, 0.0132, 0.6008, 0.5343, -1.0006, 0.0034, 0.0055, -0.1114, 571, 258797, 0.5000, 0.5000, -1.0000, 0.0000
8.4490, 0.6276, -0.6570, -9.5419, 0.0062, 0.0051, 0.0132, 0.6011, 0.5355, -1.0007, 0.0031, 0.0048, -0.1118, 572, 258797, 0.5000, 0.5000, -1.0000, 0.0000
8.4690, 0.6276, -0.6570, -9.5419, 0.0062, 0.0051, 0.0132, 0.6013, 0.5366, -1.0008, 0.0029, 0.0046, -0.1125, 573, 258797, 0.5000, 0.5000, -1.0000, 0.0000
8.4890, 0.6276, -0.6570, -9.5419, 0.0062, 0.0051, 0.0132, 0.6014, 0.5379, -1.0008, 0.0027, 0.0041, -0.1123, 574, 258797, 0.5000, 0.5000, -1.0000, 0.0000
8.5090, 0.6276, -0.6570, -9.5419, 0.0062, 0.0051, 0.0132, 0.6015, 0.5390, -1.0010, 0.0024, 0.0043, -0.1129, 575, 258797, 0.5000, 0.5000, -1.0000, 0.0000
8.5290, 0.6276, -0.6570, -9.5419, 0.0062, 0.0051, 0.0132, 0.6015, 0.5404, -1.0009, 0.0025, 0.0036, -0.1134, 576, 258797, 0.5000, 0.5000, -1.0000, 0.0000
8.5490, 0.6276, -0.6570, -9.5419, 0.0062, 0.0051, 0.0132, 0.6016, 0.5414, -1.0010, 0.0019, 0.0036, -0.1143, 577, 258797, 0.5000, 0.5000, -1.0000, 0.0000
8.5690, 0.6276, -0.6570, -9.5419, 0.0062, 0.0051, 0.0132, 0.6014, 0.5426, -1.0009, 0.0020, 0.0036, -0.1146, 578, 258797, 0.5000, 0.5000, -1.0000, 0.0000
8.5890, 0.6276, -0.6570, -9.5419, 0.0062, 0.0051, 0.0132, 0.6014, 0.5437, -1.0010, 0.0019, 0.0040, -0.1158, 579, 258797, 0.5000, 0.5000, -1.0000, 0.0000
8.6090, 0.6276, -0.6570, -9.5419, 0.0062, 0.0051, 0.0132, 0.6012, 0.5448, -1.0010, 0.0014, 0.0037, -0.1169, 580, 258797, 0.5000, 0.5000, -1.0000, 0.0000
8.6290, 0.6276, -0.6570, -9.5419, 0.0062, 0.0051, 0.0132, 0.6011, 0.5460, -1.0009, 0.0016, 0.0037, -0.1179, 581, 258797, 0.5000, 0.5000, -1.0000, 0.0000
8.6490, 0.6276, -0.6570, -9.5419, 0.0062, 0.0051, 0.0132, 0.6010, 0.5470, -1.0011, 0.0013, 0.0036, -0.1186, 582, 258797, 0.5000, 0.5000, -1.0000, 0.0000
8.6690, 0.6276, -0.6570, -9.5419, 0.0062, 0.0051, 0.0132, 0.6006, 0.5481, -1.0010, 0.0010, 0.0031, -0.1191, 583, 258797, 0.5000, 0.5000, -1.0000, 0.0000
8.6890, 0.6276, -0.6570, -9.5419, 0.0062, 0.0051, 0.0132, 0.6003, 0.5491, -1.0010, 0.0010, 0.0030, -0.1203, 584, 258797, 0.5000, 0.5000, -1.0000, 0.0000
8.7090, 0.6276, -0.6570, -9.5419, 0.0062, 0.0051, 0.0132, 0.6000, 0.5501, -1.0010, 0.0010, 0.0023, -0.1208, 585, 258797, 0.5000, 0.5000, -1.0000, 0.0000
8.7290, 0.6276, -0.6570, -9.5419, 0.0062, 0.0051, 0.0132, 0.5997, 0.5512, -1.0009, 0.0005, 0.0014, -0.1220, 586, 258797, 0.5000, 0.5000, -1.0000, 0.0000
8.7490, 0.6276, -0.6570, -9.5419, 0.0062, 0.0051, 0.0132, 0.5993, 0.5521, -1.0010, 0.0004, 0.0013, -0.1217, 587, 258797, 0.5000, 0.5000, -1.0000, 0.0000
8.7690, 0.6276, -0.6570, -9.5419, 0.0062, 0.0051, 0.0132, 0.5988, 0.5530, -1.0009, 0.0001, 0.0004, -0.1219, 588, 258797, 0.5000, 0.5000, -1.0000, 0.0000
8.7890, 0.6276, -0.6570, -9.5419, 0.0062, 0.0051, 0.0132, 0.5985, 0.5539, -1.0010, 0.0002, 0.0001, -0.1228, 589, 258797, 0.5000, 0.5000, -1.0000, 0.0000
8.8090, 0.6276, -0.6570, -9.5419, 0.0062, 0.0051, 0.0132, 0.5980, 0.5547, -1.0009, 0.0000, -0.0005, -0.1233, 590, 258797, 0.5000, 0.5000, -1.0000, 0.0000
8.8290, 0.6276, -0.6570, -9.5419, 0.0062, 0.0051, 0.0132, 0.5975, 0.5555, -1.0008, -0.0001, -0.0011, -0.1238, 591, 258797, 0.5000, 0.5000, -1.0000, 0.0000
8.8490, 0.6276, -0.6570, -9.5419, 0.0062, 0.0051, 0.0132, 0.5970, 0.5563, -1.0009, -0.0001, -0.0006, -0.1240, 592, 258797, 0.5000, 0.5000, -1.0000, 0.0000
8.8690, 0.6276, -0.6570, -9.5419, 0.0062, 0.0051, 0.0132, 0.5963, 0.5571, -1.0008, -0.0001, -0.0008, -0.1241, 593, 258797, 0.5000, 0.5000, -1.0000, 0.0000
8.8890, 0.6276, -0.6570, -9.5419, 0.0062, 0.0051, 0.0132, 0.5959, 0.5578, -1.0007, 0.0001, -0.0003, -0.1246, 594, 258797, 0.5000, 0.5000, -1.0000, 0.0000
8.9090, 0.6276, -0.6570, -9.5419, 0.0062, 0.0051, 0.0132, 0.5953, 0.5584, -1.0007, 0.0000, -0.0000, -0.1245, 595, 258797, 0.5000, 0.5000, -1.0000, 0.0000
8.9290, 0.6276, -0.6570, -9.5419, 0.0062, 0.0051, 0.0132, 0.5947, 0.5590, -1.0006, 0.0001, -0.0001, -0.1250, 596, 258797, 0.5000, 0.5000, -1.0000, 0.0000
8.9490, 0.6276, -0.6570, -9.5419, 0.0062, 0.0051, 0.0132, 0.5940, 0.5595, -1.0006, 0.0002, 0.0001, -0.1251, 597, 258797, 0.5000, 0.5000, -1.0000, 0.0000
8.9690, 0.6276, -0.6570, -9.5419, 0.0062, 0.0051, 0.0132, 0.5934, 0.5600, -1.0007, 0.0001, -0.0007, -0.1249, 598, 258797, 0.5000, 0.5000, -1.0000, 0.0000
8.9890, 0.6276, -0.6570, -9.5419, 0.0062, 0.0051, 0.0132, 0.5927, 0.5604, -1.0006, -0.0001, -0.0021, -0.1255, 599, 258797, 0.5000, 0.5000, -1.0000, 0.0000
9.0090, 0.6276, -0.6570, -9.5419, 0.0062, 0.0051, 0.0132, 0.5921, 0.5608, -1.0005, -0.0001, -0.0030, -0.1258, 600, 258797, 0.5000, 0.5000, -1.0000, 0.0000
9.0290, 0.6276, -0.6570, -9.5419, 0.0062, 0.0051, 0.0132, 0.5915, 0.5611, -1.0006, -0.0004, -0.0040, -0.1265, 601, 258797, 0.5000, 0.5000, -1.0000, 0.0000
9.0490, 0.6276, -0.6570, -9.5419, 0.0062, 0.0051, 0.0132, 0.5908, 0.5614, -1.0005, -0.0005, -0.0053, -0.1270, 602, 258797, 0.5000, 0.5000, -1.0000, 0.0000
9.0690, 0.6276, -0.6570, -9.5419, 0.0062, 0.0051, 0.0132, 0.5902, 0.5617, -1.0005, -0.0007, -0.0063, -0.1272, 603, 258797, 0.5000, 0.5000, -1.0000, 0.0000
9.0890, 0.6276, -0.6570, -9.5419, 0.0062, 0.0051, 0.0132, 0.5896, 0.5618, -1.0005, -0.0010, -0.0069, -0.1270, 604, 258797, 0.5000, 0.5000, -1.0000, 0.0000
9.1090, 0.6276, -0.6570, -9.5419, 0.0062, 0.0051, 0.0132, 0.5889, 0.5620, -1.0004, -0.0007, -0.0075, -0.1273, 605, 258797, 0.5000, 0.5000, -1.0000, 0.0000
9.1290, 0.6276, -0.6570, -9.5419, 0.0062, 0.0051, 0.0132, 0.5882, 0.5621, -1.0003, -0.0006, -0.0077, -0.1281, 606, 258797, 0.5000, 0.5000, -1.0000, 0.0000
9.1490, 0.6276, -0.6570, -9.5419, 0.0062, 0.0051, 0.0132, 0.5875, 0.5621, -1.0002, -0.0005, -0.0081, -0.1281, 607, 258797, 0.5000, 0.5000, -1.0000, 0.0000
9.1690, 0.6276, -0.6570, -9.5419, 0.0062, 0.0051, 0.0132, 0.5870, 0.5620, -1.0002, -0.0006, -0.0080, -0.1285, 608, 258797, 0.5000, 0.5000, -1.0000, 0.0000
9.1890, 0.6276, -0.6570, -9.5419, 0.0062, 0.0051, 0.0132, 0.5863, 0.5620, -1.0000, -0.0003, -0.0086, -0.1285, 609, 258797, 0.5000, 0.5000, -1.0000, 0.0000
9.2090, 0.6276, -0.6570, -9.5419, 0.0062, 0.0051, 0.0132, 0.5857, 0.5619, -0.9999, -0.0003, -0.0087, -0.1278, 610, 258797, 0.5000, 0.5000, -1.0000, 0.0000
9.2290, 0.6276, -0.6570, -9.5419, 0.0062, 0.0051, 0.0132, 0.5852, 0.5617, -0.9999, -0.0004, -0.0088, -0.1276, 611, 258797, 0.5000, 0.5000, -1.0000, 0.0000
9.2490, 0.6276, -0.6570, -9.5419, 0.0062, 0.0051, 0.0132, 0.5846, 0.5616, -0.9996, -0.0002, -0.0100, -0.1275, 612, 258797, 0.5000, 0.5000, -1.0000, 0.0000
9.2690, 0.6276, -0.6570, -9.5419, 0.0062, 0.0051, 0.0132, 0.5841, 0.5613, -0.9997, -0.0003, -0.0107, -0.1273, 613, 258797, 0.5000, 0.5000, -1.0000, 0.0000
9.2890, 0.6276, -0.6570, -9.5419, 0.0062, 0.0051, 0.0132, 0.5836, 0.5610, -0.9995, -0.0005, -0.0116, -0.1269, 614, 258797, 0.5000, 0.5000, -1.0000, 0.0000
9.3090, 0.6276, -0.6570, -9.5419, 0.0062, 0.0051, 0.0132, 0.5831, 0.5607, -0.9994, -0.0006, -0.0115, -0.1264, 615, 258797, 0.5000, 0.5000, -1.0000, 0.0000
9.3290, 0.6276, -0.6570, -9.5419, 0.0062, 0.0051, 0.0132, 0.5826, 0.5603, -0.9993, -0.0002, -0.0117, -0.1259, 616, 258797, 0.5000, 0.5000, -1.0000, 0.0000
9.3490, 0.6276, -0.6570, -9.5419, 0.0062, 0.0051, 0.0132, 0.5821, 0.5598, -0.9992, -0.0004, -0.0124, -0.1250, 617, 258797, 0.5000, 0.5000, -1.0000, 0.0000
9.3690, 0.6276, -0.6570, -9.5419, 0.0062, 0.0051, 0.0132, 0.5817, 0.5594, -0.9992, -0.0002, -0.0126, -0.1243, 618, 258797, 0.5000, 0.5000, -1.0000, 0.0000
9.3890, 0.6276, -0.6570, -9.5419, 0.0062, 0.0051, 0.0132, 0.5812, 0.5588, -0.9990, -0.0002, -0.0130, -0.1238, 619, 258797, 0.5000, 0.5000, -1.0000, 0.0000
9.4090, 0.6276, -0.6570, -9.5419, 0.0062, 0.0051, 0.0132, 0.5810, 0.5583, -0.9989, -0.0001, -0.0129, -0.1235, 620, 258797, 0.5000, 0.5000, -1.0000, 0.0000
9.4290, 0.6276, -0.6570, -9.5419, 0.0062, 0.0051, 0.0132, 0.5807, 0.5577, -0.9989, -0.0002, -0.0137, -0.1224, 621, 258797, 0.5000, 0.5000, -1.0000, 0.0000
9.4490, 0.6276, -0.6570, -9.5419, 0.0062, 0.0051, 0.0132, 0.5804, 0.5572, -0.9987, -0.0002, -0.0146, -0.1221, 622, 258797, 0.5000, 0.5000, -1.0000, 0.0000
9.4690, 0.6276, -0.6570, -9.5419, 0.0062, 0.0051, 0.0132, 0.5802, 0.5566, -0.9987, -0.0003, -0.0150, -0.1212, 623, 258797, 0.5000, 0.5000, -1.0000, 0.0000
9.4890, 0.6276, -0.6570, -9.5419, 0.0062, 0.0051, 0.0132, 0.5799, 0.5559, -0.9986, -0.0003, -0.0160, -0.1202, 624, 258797, 0.5000, 0.5000, -1.0000, 0.0000
9.5090, 0.6276, -0.6570, -9.5419, 0.0062, 0.0051, 0.0132, 0.5798, 0.5552, -0.9985, -0.0000, -0.0165, -0.1202, 625, 258797, 0.5000, 0.5000, -1.0000, 0.0000
9.5290, 0.6276, -0.6570, -9.5419, 0.0062, 0.0051, 0.0132, 0.5797, 0.5545, -0.9985, -0.0003, -0.0175, -0.1194, 626, 258797, 0.5000, 0.5000, -1.0000, 0.0000
9.5490, 0.6276, -0.6570, -9.5419, 0.0062, 0.0051, 0.0132, 0.5796, 0.5538, -0.9984, -0.0003, -0.0179, -0.1181, 627, 258797, 0.5000, 0.5000, -1.0000, 0.0000
9.5690, 0.6276, -0.6570, -9.5419, 0.0062, 0.0051, 0.0132, 0.5795, 0.5531, -0.9983, -0.0000, -0.0177, -0.1176, 628, 258797, 0.5000, 0.5000, -1.0000, 0.0000
9.5890, 0.6276, -0.6570, -9.5419, 0.0062, 0.0051, 0.0132, 0.5796, 0.5523, -0.9982, -0.0000, -0.0175, -0.1169, 629, 258797, 0.5000, 0.5000, -1.0000, 0.0000
9.6090, 0.6276, -0.6570, -9.5419, 0.0062, 0.0051, 0.0132, 0.5797, 0.5517, -0.9982, 0.0000, -0.0173, -0.1165, 630, 258797, 0.5000, 0.5000, -1.0000, 0.0000
9.6290, 0.6276, -0.6570, -9.5419, 0.0062, 0.0051, 0.0132, 0.5797, 0.5509, -0.9981, 0.0000, -0.0176, -0.1156, 631, 258797, 0.5000, 0.5000, -1.0000, 0.0000
9.6490, 0.6276, -0.6570, -9.5419, 0.0062, 0.0051, 0.0132, 0.5800, 0.5502, -0.9981, 0.0000, -0.0177, -0.1153, 632, 258797, 0.5000, 0.5000, -1.0000, 0.0000
9.6690, 0.6276, -0.6570, -9.5419, 0.0062, 0.0051, 0.0132, 0.5801, 0.5495, -0.9980, 0.0002, -0.0174, -0.1146, 633, 258797, 0.5000, 0.5000, -1.0000, 0.0000
9.6890, 0.6276, -0.6570, -9.5419, 0.0062, 0.0051, 0.0132, 0.5804, 0.5488, -0.9980, 0.0003, -0.0176, -0.1139, 634, 258797, 0.5000, 0.5000, -1.0000, 0.0000
9.7090, 0.6276, -0.6570, -9.5419, 0.0062, 0.0051, 0.0132, 0.5808, 0.5480, -0.9979, 0.0005, -0.0176, -0.1135, 635, 258797, 0.5000, 0.5000, -1.0000, 0.0000
9.7290, 0.6276, -0.6570, -9.5419, 0.0062, 0.0051, 0.0132, 0.5811, 0.5473, -0.9979, 0.0006, -0.0177, -0.1134, 636, 258797, 0.5000, 0.5000, -1.0000, 0.0000
9.7490, 0.6276, -0.6570, -9.5419, 0.0062, 0.0051, 0.0132, 0.5815, 0.5466, -0.9978, 0.0006, -0.0181, -0.1126, 637, 258797, 0.5000, 0.5000, -1.0000, 0.0000
9.7690, 0.6276, -0.6570, -9.5419, 0.0062, 0.0051, 0.0132, 0.5819, 0.5459, -0.9978, 0.0008, -0.0179, -0.1114, 638, 258797, 0.5000, 0.5000, -1.0000, 0.0000
9.7910, 0.6276, -0.6570, -9.5419, 0.0062, 0.0051, 0.0132, 0.5825, 0.5453, -0.9978, 0.0005, -0.0176, -0.1105, 639, 258797, 0.5000, 0.5000, -1.0000, 0.0000
9.8110, 0.6276, -0.6570, -9.5419, 0.0062, 0.0051, 0.0132, 0.5830, 0.5447, -0.9978, 0.0006, -0.0171, -0.1101, 640, 258797, 0.5000, 0.5000, -1.0000, 0.0000
9.8310, 0.6276, -0.6570, -9.5419, 0.0062, 0.0051, 0.0132, 0.5835, 0.5440, -0.9977, 0.0009, -0.0168, -0.1093, 641, 258797, 0.5000, 0.5000, -1.0000, 0.0000
9.8510, 0.6276, -0.6570, -9.5419, 0.0062, 0.0051, 0.0132, 0.5842, 0.5434, -0.9978, 0.0011, -0.0163, -0.1087, 642, 258797, 0.5000, 0.5000, -1.0000, 0.0000
9.8710, 0.6276, -0.6570, -9.5419, 0.0062, 0.0051, 0.0132, 0.5848, 0.5429, -0.9976, 0.0013, -0.0151, -0.1081, 643, 258797, 0.5000, 0.5000, -1.0000, 0.0000
9.8910, 0.6276, -0.6570, -9.5419, 0.0062, 0.0051, 0.0132, 0.5854, 0.5424, -0.9977, 0.0015, -0.0142, -0.1071, 644, 258797, 0.5000, 0.5000, -1.0000, 0.0000
9.9110, 0.6276, -0.6570, -9.5419, 0.0062, 0.0051, 0.0132, 0.5862, 0.5418, -0.9976, 0.0016, -0.0135, -0.1061, 645, 258797, 0.5000, 0.5000, -1.0000, 0.0000
9.9310, 0.6276, -0.6570, -9.5419, 0.0062, 0.0051, 0.0132, 0.5869, 0.5414, -0.9976, 0.0020, -0.0137, -0.1050, 646, 258797, 0.5000, 0.5000, -1.0000, 0.0000
9.9420, 0.6276, -0.6570, -9.5419, 0.0062, 0.0051, 0.0132, 0.5878, 0.5410, -0.9976, 0.0017, -0.0137, -0.1041, 647, 258797, 0.5000, 0.5000, -1.0000, 0.0000
9.9630, 0.6276, -0.6570, -9.5419, 0.0062, 0.0051, 0.0132, 0.5886, 0.5406, -0.9976, 0.0019, -0.0131, -0.1034, 648, 258797, 0.5000, 0.5000, -1.0000, 0.0000
9.9830, 0.6276, -0.6570, -9.5419, 0.0062, 0.0051, 0.0132, 0.5895, 0.5403, -0.9977, 0.0018, -0.0125, -0.1034, 649, 258797, 0.5000, 0.5000, -1.0000, 0.0000
10.0030, 0.6276, -0.6570, -9.5419, 0.0062, 0.0051, 0.0132, 0.5904, 0.5401, -0.9977, 0.0020, -0.0112, -0.1030, 650, 258797, 0.5000, 0.5000, -1.0000, 0.0000
10.0230, 0.6276, -0.6570, -9.5419, 0.0062, 0.0051, 0.0132, 0.5912, 0.5398, -0.9977, 0.0021, -0.0108, -0.1034, 651, 258797, 0.5000, 0.5000, -1.0000, 0.0000
10.0430, 0.6276, -0.6570, -9.5419, 0.0062, 0.0051, 0.0132, 0.5921, 0.5396, -0.9978, 0.0021, -0.0102, -0.1030, 652, 258797, 0.5000, 0.5000, -1.0000, 0.0000
10.0630, 0.6276, -0.6570, -9.5419, 0.0062, 0.0051, 0.0132, 0.5931, 0.5395, -0.9979, 0.0023, -0.0092, -0.1027, 653, 258797, 0.5000, 0.5000, -1.0000, 0.0000
10.0830, 0.6276, -0.6570, -9.5419, 0.0062, 0.0051, 0.0132, 0.5940, 0.5394, -0.9980, 0.0024, -0.0090, -0.1030, 654, 258797, 0.5000, 0.5000, -1.0000, 0.0000
10.1030, 0.6276, -0.6570, -9.5419, 0.0062, 0.0051, 0.0132, 0.5949, 0.5393, -0.9981, 0.0026, -0.0086, -0.1028, 655, 258797, 0.5000, 0.5000, -1.0000, 0.0000
10.1230, 0.6276, -0.6570, -9.5419, 0.0062, 0.0051, 0.0132, 0.5959, 0.5392, -0.9981, 0.0026, -0.0081, -0.1024, 656, 258797, 0.5000, 0.5000, -1.0000, 0.0000
10.1430, 0.6276, -0.6570, -9.5419, 0.0062, 0.0051, 0.0132, 0.5968, 0.5393, -0.9982, 0.0029, -0.0076, -0.1029, 657, 258797, 0.5000, 0.5000, -1.0000, 0.0000
10.1630, 0.6276, -0.6570, -9.5419, 0.0062, 0.0051, 0.0132, 0.5978, 0.5393, -0.9984, 0.0030, -0.0069, -0.1024, 658, 258797, 0.5000, 0.5000, -1.0000, 0.0000
10.1830, 0.6276, -0.6570, -9.5419, 0.0062, 0.0051, 0.0132, 0.5988, 0.5395, -0.9984, 0.0032, -0.0067, -0.1028, 659, 258797, 0.5000, 0.5000, -1.0000, 0.0000
10.2030, 0.6276, -0.6570, -9.5419, 0.0062, 0.0051, 0.0132, 0.5997, 0.5396, -0.9985, 0.0033, -0.0064, -0.1036, 660, 258797, 0.5000, 0.5000, -1.0000, 0.0000
10.2230, 0.6276, -0.6570, -9.5419, 0.0062, 0.0051, 0.0132, 0.6007, 0.5398, -0.9987, 0.0031, -0.0061, -0.1040, 661, 258797, 0.5000, 0.5000, -1.0000, 0.0000
10.2430, 0.6276, -0.6570, -9.5419, 0.0062, 0.0051, 0.0132, 0.6015, 0.5401, -0.9988, 0.0033, -0.0054, -0.1046, 662, 258797, 0.5000, 0.5000, -1.0000, 0.0000
10.2630, 0.6276, -0.6570, -9.5419, 0.0062, 0.0051, 0.0132, 0.6025, 0.5404, -0.9990, 0.0036, -0.0042, -0.1051, 663, 258797, 0.5000, 0.5000, -1.0000, 0.0000
10.2830, 0.6276, -0.6570, -9.5419, 0.0062, 0.0051, 0.0132, 0.6034, 0.5407, -0.9990, 0.0037, -0.0031, -0.1051, 664, 258797, 0.5000, 0.5000, -1.0000, 0.0000
10.3030, 0.6276, -0.6570, -9.5419, 0.0062, 0.0051, 0.0132, 0.6044, 0.5411, -0.9993, 0.0040, -0.0019, -0.1049, 665, 258797, 0.5000, 0.5000, -1.0000, 0.0000
10.3230, 0.6276, -0.6570, -9.5419, 0.0062, 0.0051, 0.0132, 0.6053, 0.5415, -0.9994, 0.0044, -0.0011, -0.1047, 666, 258797, 0.5000, 0.5000, -1.0000, 0.0000
10.3430, 0.6276, -0.6570, -9.5419, 0.0062, 0.0051, 0.0132, 0.6062, 0.5420, -0.9995, 0.0045, -0.0004, -0.1051, 667, 258797, 0.5000, 0.5000, -1.0000, 0.0000
10.3630, 0.6276, -0.6570, -9.5419, 0.0062, 0.0051, 0.0132, 0.6070, 0.5424, -0.9999, 0.0046, 0.0004, -0.1052, 668, 258797, 0.5000, 0.5000, -1.0000, 0.0000
10.3830, 0.6276, -0.6570, -9.5419, 0.0062, 0.0051, 0.0132, 0.6078, 0.5429, -1.0000, 0.0050, 0.0006, -0.1055, 669, 258797, 0.5000, 0.5000, -1.0000, 0.0000
10.4030, 0.6276, -0.6570, -9.5419, 0.0062, 0.0051, 0.0132, 0.6087, 0.5435, -1.0004, 0.0050, 0.0013, -0.1055, 670, 258797, 0.5000, 0.5000, -1.0000, 0.0000
10.4230, 0.6276, -0.6570, -9.5419, 0.0062, 0.0051, 0.0132, 0.6095, 0.5440, -1.0006, 0.0051, 0.0011, -0.1056, 671, 258797, 0.5000, 0.5000, -1.0000, 0.0000
10.4430, 0.6276, -0.6570, -9.5419, 0.0062, 0.0051, 0.0132, 0.6102, 0.5446, -1.0008, 0.0055, 0.0018, -0.1061, 672, 258797, 0.5000, 0.5000, -1.0000, 0.0000
10.4630, 0.6276, -0.6570, -9.5419, 0.0062, 0.0051, 0.0132, 0.6110, 0.5453, -1.0011, 0.0054, 0.0030, -0.1061, 673, 258797, 0.5000, 0.5000, -1.0000, 0.0000
10.4830, 0.6276, -0.6570, -9.5419, 0.0062, 0.0051, 0.0132, 0.6118, 0.5460, -1.0012, 0.0055, 0.0028, -0.1064, 674, 258797, 0.5000, 0.5000, -1.0000, 0.0000
10.5030, 0.6276, -0.6570, -9.5419, 0.0062, 0.0051, 0.0132, 0.6123, 0.5468, -1.0015, 0.0058, 0.0033, -0.1069, 675, 258797, 0.5000, 0.5000, -1.0000, 0.0000
10.5230, 0.6276, -0.6570, -9.5419, 0.0062, 0.0051, 0.0132, 0.6130, 0.5474, -1.0017, 0.0056, 0.0035, -0.1068, 676, 258797, 0.5000, 0.5000, -1.0000, 0.0000
10.5430, 0.6276, -0.6570, -9.5419, 0.0062, 0.0051, 0.0132, 0.6136, 0.5481, -1.0019, 0.0058, 0.0038, -0.1072, 677, 258797, 0.5000, 0.5000, -1.0000, 0.0000
10.5630, 0.6276, -0.6570, -9.5419, 0.0062, 0.0051, 0.0132, 0.6142, 0.5490, -1.0022, 0.0059, 0.0044, -0.1077, 678, 258797, 0.5000, 0.5000, -1.0000, 0.0000
10.5830, 0.6276, -0.6570, -9.5419, 0.0062, 0.0051, 0.0132, 0.6147, 0.5497, -1.0023, 0.0061, 0.0042, -0.1080, 679, 258797, 0.5000, 0.5000, -1.0000, 0.0000
10.6030, 0.6276, -0.6570, -9.5419, 0.0062, 0.0051, 0.0132, 0.6152, 0.5504, -1.0026, 0.0059, 0.0048, -0.1082, 680, 258797, 0.5000, 0.5000, -1.0000, 0.0000
10.6230, 0.6276, -0.6570, -9.5419, 0.0062, 0.0051, 0.0132, 0.6156, 0.5513, -1.0027, 0.0062, 0.0049, -0.1090, 681, 258797, 0.5000, 0.5000, -1.0000, 0.0000
10.6430, 0.6276, -0.6570, -9.5419, 0.0062, 0.0051, 0.0132, 0.6160, 0.5521, -1.0029, 0.0059, 0.0053, -0.1096, 682, 258797, 0.5000, 0.5000, -1.0000, 0.0000
10.6630, 0.6276, -0.6570, -9.5419, 0.0062, 0.0051, 0.0132, 0.6163, 0.5529, -1.0031, 0.0059, 0.0058, -0.1107, 683, 258797, 0.5000, 0.5000, -1.0000, 0.0000
10.6830, 0.6276, -0.6570, -9.5419, 0.0062, 0.0051, 0.0132, 0.6166, 0.5538, -1.0033, 0.0061, 0.0060, -0.1120, 684, 258797, 0.5000, 0.5000, -1.0000, 0.0000
10.7030, 0.6276, -0.6570, -9.5419, 0.0062, 0.0051, 0.0132, 0.6170, 0.5546, -1.0034, 0.0058, 0.0061, -0.1135, 685, 258797, 0.5000, 0.5000, -1.0000, 0.0000
10.7230, 0.6276, -0.6570, -9.5419, 0.0062, 0.0051, 0.0132, 0.6171, 0.5554, -1.0034, 0.0061, 0.0059, -0.1146, 686, 258797, 0.5000, 0.5000, -1.0000, 0.0000
10.7430, 0.6276, -0.6570, -9.5419, 0.0062, 0.0051, 0.0132, 0.6173, 0.5563, -1.0036, 0.0061, 0.0064, -0.1160, 687, 258797, 0.5000, 0.5000, -1.0000, 0.0000
10.7630, 0.6276, -0.6570, -9.5419, 0.0062, 0.0051, 0.0132, 0.6175, 0.5571, -1.0036, 0.0061, 0.0065, -0.1170, 688, 258797, 0.5000, 0.5000, -1.0000, 0.0000
10.7830, 0.6276, -0.6570, -9.5419, 0.0062, 0.0051, 0.0132, 0.6176, 0.5579, -1.0036, 0.0062, 0.0063, -0.1179, 689, 258797, 0.5000, 0.5000, -1.0000, 0.0000
10.8030, 0.6276, -0.6570, -9.5419, 0.0062, 0.0051, 0.0132, 0.6177, 0.5586, -1.0037, 0.0061, 0.0066, -0.1190, 690, 258797, 0.5000, 0.5000, -1.0000, 0.0000
10.8230, 0.6276, -0.6570, -9.5419, 0.0062, 0.0051, 0.0132, 0.6177, 0.5594, -1.0038, 0.0060, 0.0065, -0.1195, 691, 258797, 0.5000, 0.5000, -1.0000, 0.0000
10.8430, 0.6276, -0.6570, -9.5419, 0.0062, 0.0051, 0.0132, 0.6177, 0.5601, -1.0038, 0.0058, 0.0064, -0.1205, 692, 258797, 0.5000, 0.5000, -1.0000, 0.0000
10.8630, 0.6276, -0.6570, -9.5419, 0.0062, 0.0051, 0.0132, 0.6177, 0.5609, -1.0037, 0.0060, 0.0067, -0.1214, 693, 258797, 0.5000, 0.5000, -1.0000, 0.0000
10.8830, 0.6276, -0.6570, -9.5419, 0.0062, 0.0051, 0.0132, 0.6176, 0.5616, -1.0039, 0.0059, 0.0067, -0.1217, 694, 258797, 0.5000, 0.5000, -1.0000, 0.0000
10.9030, 0.6276, -0.6570, -9.5419, 0.0062, 0.0051, 0.0132, 0.6174, 0.5622, -1.0038, 0.0060, 0.0071, -0.1219, 695, 258797, 0.5000, 0.5000, -1.0000, 0.0000
10.9230, 0.6276, -0.6570, -9.5419, 0.0062, 0.0051, 0.0132, 0.6171, 0.5629, -1.0039, 0.0060, 0.0079, -0.1223, 696, 258797, 0.5000, 0.5000, -1.0000, 0.0000
10.9430, 0.6276, -0.6570, -9.5419, 0.0062, 0.0051, 0.0132, 0.6169, 0.5634, -1.0040, 0.0059, 0.0077, -0.1228, 697, 258797, 0.5000, 0.5000, -1.0000, 0.0000
10.9630, 0.6276, -0.6570, -9.5419, 0.0062, 0.0051, 0.0132, 0.6167, 0.5639, -1.0040, 0.0059, 0.0066, -0.1237, 698, 258797, 0.5000, 0.5000, -1.0000, 0.0000
10.9830, 0.6276, -0.6570, -9.5419, 0.0062, 0.0051, 0.0132, 0.6164, 0.5645, -1.0041, 0.0059, 0.0063, -0.1244, 699, 258797, 0.5000, 0.5000, -1.0000, 0.0000
11.0030, 0.6276, -0.6570, -9.5419, 0.0062, 0.0051, 0.0132, 0.6160, 0.5649, -1.0041, 0.0058, 0.0059, -0.1246, 700, 258797, 0.5000, 0.5000, -1.0000, 0.0000
11.0230, 0.6276, -0.6570, -9.5419, 0.0062, 0.0051, 0.0132, 0.6156, 0.5654, -1.0041, 0.0058, 0.0052, -0.1247, 701, 258797, 0.5000, 0.5000, -1.0000, 0.0000
11.0430, 0.6276, -0.6570, -9.5419, 0.0062, 0.0051, 0.0132, 0.6152, 0.5658, -1.0043, 0.0060, 0.0046, -0.1247, 702, 258797, 0.5000, 0.5000, -1.0000, 0.0000
11.0630, 0.6276, -0.6570, -9.5419, 0.0062, 0.0051, 0.0132, 0.6148, 0.5663, -1.0042, 0.0058, 0.0039, -0.1249, 703, 258797, 0.5000, 0.5000, -1.0000, 0.0000
11.0830, 0.6276, -0.6570, -9.5419, 0.0062, 0.0051, 0.0132, 0.6143, 0.5666, -1.0044, 0.0057, 0.0040, -0.1248, 704, 258797, 0.5000, 0.5000, -1.0000, 0.0000
11.1030, 0.6276, -0.6570, -9.5419, 0.0062, 0.0051, 0.0132, 0.6138, 0.5669, -1.0043, 0.0057, 0.0036, -0.1244, 705, 258797, 0.5000, 0.5000, -1.0000, 0.0000
11.1230, 0.6276, -0.6570, -9.5419, 0.0062, 0.0051, 0.0132, 0.6133, 0.5671, -1.0044, 0.0058, 0.0034, -0.1243, 706, 258797, 0.5000, 0.5000, -1.0000, 0.0000
11.1430, 0.6276, -0.6570, -9.5419, 0.0062, 0.0051, 0.0132, 0.6127, 0.5673, -1.0044, 0.0058, 0.0031, -0.1244, 707, 258797, 0.5000, 0.5000, -1.0000, 0.0000
11.1630, 0.6276, -0.6570, -9.5419, 0.0062, 0.0051, 0.0132, 0.6121, 0.5675, -1.0045, 0.0061, 0.0028, -0.1248, 708, 258797, 0.5000, 0.5000, -1.0000, 0.0000
11.1830, 0.6276, -0.6570, -9.5419, 0.0062, 0.0051, 0.0132, 0.6115, 0.5675, -1.0046, 0.0060, 0.0020, -0.1252, 709, 258797, 0.5000, 0.5000, -1.0000, 0.0000
11.2030, 0.6276, -0.6570, -9.5419, 0.0062, 0.0051, 0.0132, 0.6109, 0.5675, -1.0047, 0.0061, 0.0017, -0.1252, 710, 258797, 0.5000, 0.5000, -1.0000, 0.0000
11.2230, 0.6276, -0.6570, -9.5419, 0.0062, 0.0051, 0.0132, 0.6103, 0.5677, -1.0048, 0.0061, 0.0014, -0.1254, 711, 258797, 0.5000, 0.5000, -1.0000, 0.0000
11.2430, 0.6276, -0.6570, -9.5419, 0.0062, 0.0051, 0.0132, 0.6097, 0.5676, -1.0050, 0.0062, 0.0008, -0.1249, 712, 258797, 0.5000, 0.5000, -1.0000, 0.0000
11.2630, 0.6276, -0.6570, -9.5419, 0.0062, 0.0051, 0.0132, 0.6089, 0.5675, -1.0050, 0.0064, 0.0005, -0.1246, 713, 258797, 0.5000, 0.5000, -1.0000, 0.0000
11.2830, 0.6276, -0.6570, -9.5419, 0.0062, 0.0051, 0.0132, 0.6082, 0.5674, -1.0052, 0.0064, -0.0002, -0.1248, 714, 258797, 0.5000, 0.5000, -1.0000, 0.0000
11.3030, 0.6276, -0.6570, -9.5419, 0.0062, 0.0051, 0.0132, 0.6075, 0.5674, -1.0052, 0.0065, -0.0011, -0.1245, 715, 258797, 0.5000, 0.5000, -1.0000, 0.0000
11.3230, 0.6276, -0.6570, -9.5419, 0.0062, 0.0051, 0.0132, 0.6068, 0.5672, -1.0054, 0.0066, -0.0016, -0.1247, 716, 258797, 0.5000, 0.5000, -1.0000, 0.0000
11.3430, 0.6276, -0.6570, -9.5419, 0.0062, 0.0051, 0.0132, 0.6060, 0.5670, -1.0055, 0.0069, -0.0021, -0.1246, 717, 258797, 0.5000, 0.5000, -1.0000, 0.0000
11.3630, 0.6276, -0.6570, -9.5419, 0.0062, 0.0051, 0.0132, 0.6054, 0.5667, -1.0056, 0.0066, -0.0028, -0.1245, 718, 258797, 0.5000, 0.5000, -1.0000, 0.0000
11.3830, 0.6276, -0.6570, -9.5419, 0.0062, 0.0051, 0.0132, 0.6045, 0.5665, -1.0057, 0.0069, -0.0035, -0.1243, 719, 258797, 0.5000, 0.5000, -1.0000, 0.0000
11.4030, 0.6276, -0.6570, -9.5419, 0.0062, 0.0051, 0.0132, 0.6038, 0.5662, -1.0060, 0.0072, -0.0040, -0.1239, 720, 258797, 0.5000, 0.5000, -1.0000, 0.0000
11.4230, 0.6276, -0.6570, -9.5419, 0.0062, 0.0051, 0.0132, 0.6031, 0.5658, -1.0061, 0.0073, -0.0045, -0.1238, 721, 258797, 0.5000, 0.5000, -1.0000, 0.0000
11.4430, 0.6276, -0.6570, -9.5419, 0.0062, 0.0051, 0.0132, 0.6024, 0.5655, -1.0063, 0.0074, -0.0048, -0.1239, 722, 258797, 0.5000, 0.5000, -1.0000, 0.0000
11.4630, 0.6276, -0.6570, -9.5419, 0.0062, 0.0051, 0.0132, 0.6016, 0.5651, -1.0065, 0.0074, -0.0049, -0.1235, 723, 258797, 0.5000, 0.5000, -1.0000, 0.0000
11.4830, 0.6276, -0.6570, -9.5419, 0.0062, 0.0051, 0.0132, 0.6009, 0.5646, -1.0067, 0.0075, -0.0050, -0.1229, 724, 258797, 0.5000, 0.5000, -1.0000, 0.0000
11.5030, 0.6276, -0.6570, -9.5419, 0.0062, 0.0051, 0.0132, 0.6002, 0.5642, -1.0070, 0.0075, -0.0053, -0.1224, 725, 258797, 0.5000, 0.5000, -1.0000, 0.0000
11.5230, 0.6276, -0.6570, -9.5419, 0.0062, 0.0051, 0.0132, 0.5994, 0.5637, -1.0072, 0.0076, -0.0059, -0.1216, 726, 258797, 0.5000, 0.5000, -1.0000, 0.0000
11.5430, 0.6276, -0.6570, -9.5419, 0.0062, 0.0051, 0.0132, 0.5988, 0.5632, -1.0075, 0.0076, -0.0059, -0.1214, 727, 258797, 0.5000, 0.5000, -1.0000, 0.0000
11.5630, 0.6276, -0.6570, -9.5419, 0.0062, 0.0051, 0.0132, 0.5981, 0.5627, -1.0078, 0.0075, -0.0068, -0.1211, 728, 258797, 0.5000, 0.5000, -1.0000, 0.0000
11.5830, 0.6276, -0.6570, -9.5419, 0.0062, 0.0051, 0.0132, 0.5974, 0.5620, -1.0080, 0.0078, -0.0082, -0.1202, 729, 258797, 0.5000, 0.5000, -1.0000, 0.0000
11.6030, 0.6276, -0.6570, -9.5419, 0.0062, 0.0051, 0.0132, 0.5968, 0.5615, -1.0083, 0.0073, -0.0097, -0.1190, 730, 258797, 0.5000, 0.5000, -1.0000, 0.0000
11.6230, 0.6276, -0.6570, -9.5419, 0.0062, 0.0051, 0.0132, 0.5962, 0.5610, -1.0086, 0.0073, -0.0103, -0.1179, 731, 258797, 0.5000, 0.5000, -1.0000, 0.0000
11.6430, 0.6276, -0.6570, -9.5419, 0.0062, 0.0051, 0.0132, 0.5955, 0.5604, -1.0089, 0.0072, -0.0110, -0.1172, 732, 258797, 0.5000, 0.5000, -1.0000, 0.0000
11.6630, 0.6276, -0.6570, -9.5419, 0.0062, 0.0051, 0.0132, 0.5950, 0.5597, -1.0092, 0.0068, -0.0118, -0.1163, 733, 258797, 0.5000, 0.5000, -1.0000, 0.0000
11.6830, 0.6276, -0.6570, -9.5419, 0.0062, 0.0051, 0.0132, 0.5944, 0.5592, -1.0094, 0.0067, -0.0125, -0.1161, 734, 258797, 0.5000, 0.5000, -1.0000, 0.0000
11.7030, 0.6276, -0.6570, -9.5419, 0.0062, 0.0051, 0.0132, 0.5939, 0.5585, -1.0098, 0.0070, -0.0132, -0.1154, 735, 258797, 0.5000, 0.5000, -1.0000, 0.0000
11.7230, 0.6276, -0.6570, -9.5419, 0.0062, 0.0051, 0.0132, 0.5934, 0.5579, -1.0100, 0.0071, -0.0130, -0.1152, 736, 258797, 0.5000, 0.5000, -1.0000, 0.0000
11.7430, 0.6276, -0.6570, -9.5419, 0.0062, 0.0051, 0.0132, 0.5929, 0.5574, -1.0103, 0.0075, -0.0131, -0.1148, 737, 258797, 0.5000, 0.5000, -1.0000, 0.0000
11.7630, 0.6276, -0.6570, -9.5419, 0.0062, 0.0051, 0.0132, 0.5925, 0.5567, -1.0105, 0.0073, -0.0141, -0.1146, 738, 258797, 0.5000, 0.5000, -1.0000, 0.0000
11.7840, 0.6276, -0.6570, -9.5419, 0.0062, 0.0051, 0.0132, 0.5922, 0.5561, -1.0109, 0.0072, -0.0141, -0.1138, 739, 258797, 0.5000, 0.5000, -1.0000, 0.0000
11.8040, 0.6276, -0.6570, -9.5419, 0.0062, 0.0051, 0.0132, 0.5918, 0.5555, -1.0112, 0.0075, -0.0145, -0.1133, 740, 258797, 0.5000, 0.5000, -1.0000, 0.0000
11.8240, 0.6276, -0.6570, -9.5419, 0.0062, 0.0051, 0.0132, 0.5915, 0.5548, -1.0115, 0.0076, -0.0153, -0.1128, 741, 258797, 0.5000, 0.5000, -1.0000, 0.0000
11.8440, 0.6276, -0.6570, -9.5419, 0.0062, 0.0051, 0.0132, 0.5914, 0.5543, -1.0118, 0.0075, -0.0161, -0.1129, 742, 258797, 0.5000, 0.5000, -1.0000, 0.0000
11.8640, 0.6276, -0.6570, -9.5419, 0.0062, 0.0051, 0.0132, 0.5911, 0.5537, -1.0121, 0.0075, -0.0166, -0.1124, 743, 258797, 0.5000, 0.5000, -1.0000, 0.0000
11.8840, 0.6276, -0.6570, -9.5419, 0.0062, 0.0051, 0.0132, 0.5910, 0.5532, -1.0123, 0.0077, -0.0168, -0.1122, 744, 258797, 0.5000, 0.5000, -1.0000, 0.0000
11.9040, 0.6276, -0.6570, -9.5419, 0.0062, 0.0051, 0.0132, 0.5909, 0.5526, -1.0126, 0.0076, -0.0171, -0.1118, 745, 258797, 0.5000, 0.5000, -1.0000, 0.0000
11.9240, 0.6276, -0.6570, -9.5419, 0.0062, 0.0051, 0.0132, 0.5908, 0.5521, -1.0129, 0.0079, -0.0172, -0.1117, 746, 258797, 0.5000, 0.5000, -1.0000, 0.0000
11.9440, 0.6276, -0.6570, -9.5419, 0.0062, 0.0051, 0.0132, 0.5908, 0.5515, -1.0131, 0.0079, -0.0177, -0.1118, 747, 258797, 0.5000, 0.5000, -1.0000, 0.0000
11.9640, 0.6276, -0.6570, -9.5419, 0.0062, 0.0051, 0.0132, 0.5909, 0.5510, -1.0134, 0.0080, -0.0183, -0.1114, 748, 258797, 0.5000, 0.5000, -1.0000, 0.0000
11.9840, 0.6276, -0.6570, -9.5419, 0.0062, 0.0051, 0.0132, 0.5910, 0.5505, -1.0136, 0.0081, -0.0187, -0.1114, 749, 258797, 0.5000, 0.5000, -1.0000, 0.0000
12.0040, 0.6276, -0.6570, -9.5419, 0.0062, 0.0051, 0.0132, 0.5911, 0.5500, -1.0138, 0.0083, -0.0189, -0.1114, 750, 258797, 0.5000, 0.5000, -1.0000, 0.0000
12.0240, 0.6276, -0.6570, -9.5419, 0.0062, 0.0051, 0.0132, 0.5914, 0.5494, -1.0142, 0.0082, -0.0192, -0.1109, 751, 258797, 0.5000, 0.5000, -1.0000, 0.0000
12.0440, 0.6276, -0.6570, -9.5419, 0.0062, 0.0051, 0.0132, 0.5916, 0.5491, -1.0143, 0.0083, -0.0195, -0.1106, 752, 258797, 0.5000, 0.5000, -1.0000, 0.0000
12.0640, 0.6276, -0.6570, -9.5419, 0.0062, 0.0051, 0.0132, 0.5919, 0.5486, -1.0145, 0.0085, -0.0192, -0.1102, 753, 258797, 0.5000, 0.5000, -1.0000, 0.0000
12.0840, 0.6276, -0.6570, -9.5419, 0.0062, 0.0051, 0.0132, 0.5923, 0.5482, -1.0147, 0.0085, -0.0192, -0.1100, 754, 258797, 0.5000, 0.5000, -1.0000, 0.0000
12.1040, 0.6276, -0.6570, -9.5419, 0.0062, 0.0051, 0.0132, 0.5927, 0.5478, -1.0148, 0.0085, -0.0200, -0.1097, 755, 258797, 0.5000, 0.5000, -1.0000, 0.0000
12.1240, 0.6276, -0.6570, -9.5419, 0.0062, 0.0051, 0.0132, 0.5932, 0.5475, -1.0151, 0.0085, -0.0201, -0.1085, 756, 258797, 0.5000, 0.5000, -1.0000, 0.0000
12.1440, 0.6276, -0.6570, -9.5419, 0.0062, 0.0051, 0.0132, 0.5938, 0.5471, -1.0152, 0.0084, -0.0205, -0.1071, 757, 258797, 0.5000, 0.5000, -1.0000, 0.0000
12.1640, 0.6276, -0.6570, -9.5419, 0.0062, 0.0051, 0.0132, 0.5943, 0.5468, -1.0153, 0.0086, -0.0200, -0.1069, 758, 258797, 0.5000, 0.5000, -1.0000, 0.0000
12.1840, 0.6276, -0.6570, -9.5419, 0.0062, 0.0051, 0.0132, 0.5950, 0.5466, -1.0156, 0.0087, -0.0196, -0.1069, 759, 258797, 0.5000, 0.5000, -1.0000, 0.0000
12.2040, 0.6276, -0.6570, -9.5419, 0.0062, 0.0051, 0.0132, 0.5956, 0.5462, -1.0157, 0.0090, -0.0193, -0.1064, 760, 258797, 0.5000, 0.5000, -1.0000, 0.0000
12.2240, 0.6276, -0.6570, -9.5419, 0.0062, 0.0051, 0.0132, 0.5964, 0.5460, -1.0159, 0.0091, -0.0190, -0.1066, 761, 258797, 0.5000, 0.5000, -1.0000, 0.0000
12.2440, 0.6276, -0.6570, -9.5419, 0.0062, 0.0051, 0.0132, 0.5972, 0.5458, -1.0161, 0.0092, -0.0184, -0.1067, 762, 258797, 0.5000, 0.5000, -1.0000, 0.0000
12.2640, 0.6276, -0.6570, -9.5419, 0.0062, 0.0051, 0.0132, 0.5979, 0.5456, -1.0163, 0.0093, -0.0168, -0.1065, 763, 258797, 0.5000, 0.5000, -1.0000, 0.0000
12.2840, 0.6276, -0.6570, -9.5419, 0.0062, 0.0051, 0.0132, 0.5988, 0.5455, -1.0165, 0.0096, -0.0155, -0.1064, 764, 258797, 0.5000, 0.5000, -1.0000, 0.0000
12.3040, 0.6276, -0.6570, -9.5419, 0.0062, 0.0051, 0.0132, 0.5997, 0.5454, -1.0166, 0.0097, -0.0151, -0.1060, 765, 258797, 0.5000, 0.5000, -1.0000, 0.0000
12.3240, 0.6276, -0.6570, -9.5419, 0.0062, 0.0051, 0.0132, 0.6007, 0.5453, -1.0169, 0.0097, -0.0147, -0.1054, 766, 258797, 0.5000, 0.5000, -1.0000, 0.0000
12.3440, 0.6276, -0.6570, -9.5419, 0.0062, 0.0051, 0.0132, 0.6015, 0.5453, -1.0170, 0.0098, -0.0141, -0.1051, 767, 258797, 0.5000, 0.5000, -1.0000, 0.0000
12.3640, 0.6276, -0.6570, -9.5419, 0.0062, 0.0051, 0.0132, 0.6026, 0.5452, -1.0172, 0.0100, -0.0133, -0.1042, 768, 258797, 0.5000, 0.5000, -1.0000, 0.0000
12.3840, 0.6276, -0.6570, -9.5419, 0.0062, 0.0051, 0.0132, 0.6036, 0.5452, -1.0175, 0.0099, -0.0127, -0.1040, 769, 258797, 0.5000, 0.5000, -1.0000, 0.0000
12.4040, 0.6276, -0.6570, -9.5419, 0.0062, 0.0051, 0.0132, 0.6046, 0.5453, -1.0175, 0.0101, -0.0117, -0.1044, 770, 258797, 0.5000, 0.5000, -1.0000, 0.0000
12.4240, 0.6276, -0.6570, -9.5419, 0.0062, 0.0051, 0.0132, 0.6056, 0.5454, -1.0178, 0.0099, -0.0104, -0.1044, 771, 258797, 0.5000, 0.5000, -1.0000, 0.0000
12.4440, 0.6276, -0.6570, -9.5419, 0.0062, 0.0051, 0.0132, 0.6067, 0.5456, -1.0179, 0.0101, -0.0098, -0.1040, 772, 258797, 0.5000, 0.5000, -1.0000, 0.0000
12.4640, 0.6276, -0.6570, -9.5419, 0.0062, 0.0051, 0.0132, 0.6078, 0.5458, -1.0180, 0.0105, -0.0086, -0.1041, 773, 258797, 0.5000, 0.5000, -1.0000, 0.0000
12.4840, 0.6276, -0.6570, -9.5419, 0.0062, 0.0051, 0.0132, 0.6088, 0.5460, -1.0183, 0.0108, -0.0072, -0.1042, 774, 258797, 0.5000, 0.5000, -1.0000, 0.0000
12.5040, 0.6276, -0.6570, -9.5419, 0.0062, 0.0051, 0.0132, 0.6099, 0.5462, -1.0184, 0.0108, -0.0058, -0.1046, 775, 258797, 0.5000, 0.5000, -1.0000, 0.0000
12.5240, 0.6276, -0.6570, -9.5419, 0.0062, 0.0051, 0.0132, 0.6109, 0.5465, -1.0186, 0.0110, -0.0049, -0.1049, 776, 258797, 0.5000, 0.5000, -1.0000, 0.0000
12.5440, 0.6276, -0.6570, -9.5419, 0.0062, 0.0051, 0.0132, 0.6120, 0.5469, -1.0188, 0.0110, -0.0044, -0.1047, 777, 258797, 0.5000, 0.5000, -1.0000, 0.0000
12.5640, 0.6276, -0.6570, -9.5419, 0.0062, 0.0051, 0.0132, 0.6132, 0.5472, -1.0190, 0.0110, -0.0030, -0.1049, 778, 258797, 0.5000, 0.5000, -1.0000, 0.0000
12.5840, 0.6276, -0.6570, -9.5419, 0.0062, 0.0051, 0.0132, 0.6141, 0.5476, -1.0191, 0.0114, -0.0020, -0.1051, 779, 258797, 0.5000, 0.5000, -1.0000, 0.0000
12.6040, 0.6276, -0.6570, -9.5419, 0.0062, 0.0051, 0.0132, 0.6152, 0.5480, -1.0194, 0.0115, -0.0004, -0.1048, 780, 258797, 0.5000, 0.5000, -1.0000, 0.0000
12.6240, 0.6276, -0.6570, -9.5419, 0.0062, 0.0051, 0.0132, 0.6161, 0.5485, -1.0194, 0.0117, 0.0006, -0.1043, 781, 258797, 0.5000, 0.5000, -1.0000, 0.0000
12.6440, 0.6276, -0.6570, -9.5419, 0.0062, 0.0051, 0.0132, 0.6170, 0.5490, -1.0196, 0.0118, 0.0015, -0.1036, 782, 258797, 0.5000, 0.5000, -1.0000, 0.0000
12.6640, 0.6276, -0.6570, -9.5419, 0.0062, 0.0051, 0.0132, 0.6180, 0.5495, -1.0197, 0.0119, 0.0022, -0.1032, 783, 258797, 0.5000, 0.5000, -1.0000, 0.0000
12.6840, 0.6276, -0.6570, -9.5419, 0.0062, 0.0051, 0.0132, 0.6189, 0.5501, -1.0198, 0.0119, 0.0027, -0.1028, 784, 258797, 0.5000, 0.5000, -1.0000, 0.0000
12.7040, 0.6276, -0.6570, -9.5419, 0.0062, 0.0051, 0.0132, 0.6198, 0.5507, -1.0201, 0.0123, 0.0036, -0.1035, 785, 258797, 0.5000, 0.5000, -1.0000, 0.0000
12.7240, 0.6276, -0.6570, -9.5419, 0.0062, 0.0051, 0.0132, 0.6206, 0.5513, -1.0203, 0.0125, 0.0040, -0.1036, 786, 258797, 0.5000, 0.5000, -1.0000, 0.0000
12.7440, 0.6276, -0.6570, -9.5419, 0.0062, 0.0051, 0.0132, 0.6215, 0.5520, -1.0204, 0.0124, 0.0041, -0.1040, 787, 258797, 0.5000, 0.5000, -1.0000, 0.0000
12.7640, 0.6276, -0.6570, -9.5419, 0.0062, 0.0051, 0.0132, 0.6221, 0.5526, -1.0205, 0.0127, 0.0046, -0.1042, 788, 258797, 0.5000, 0.5000, -1.0000, 0.0000
12.7840, 0.6276, -0.6570, -9.5419, 0.0062, 0.0051, 0.0132, 0.6228, 0.5533, -1.0207, 0.0127, 0.0053, -0.1047, 789, 258797, 0.5000, 0.5000, -1.0000, 0.0000
12.8040, 0.6276, -0.6570, -9.5419, 0.0062, 0.0051, 0.0132, 0.6234, 0.5541, -1.0209, 0.0131, 0.0056, -0.1049, 790, 258797, 0.5000, 0.5000, -1.0000, 0.0000
12.8240, 0.6276, -0.6570, -9.5419, 0.0062, 0.0051, 0.0132, 0.6241, 0.5549, -1.0209, 0.0134, 0.0054, -0.1055, 791, 258797, 0.5000, 0.5000, -1.0000, 0.0000
12.8440, 0.6276, -0.6570, -9.5419, 0.0062, 0.0051, 0.0132, 0.6247, 0.5557, -1.0211, 0.0132, 0.0059, -0.1052, 792, 258797, 0.5000, 0.5000, -1.0000, 0.0000
12.8640, 0.6276, -0.6570, -9.5419, 0.0062, 0.0051, 0.0132, 0.6251, 0.5566, -1.0212, 0.0135, 0.0060, -0.1056, 793, 258797, 0.5000, 0.5000, -1.0000, 0.0000
12.8840, 0.6276, -0.6570, -9.5419, 0.0062, 0.0051, 0.0132, 0.6256, 0.5574, -1.0213, 0.0136, 0.0058, -0.1060, 794, 258797, 0.5000, 0.5000, -1.0000, 0.0000
12.9040, 0.6276, -0.6570, -9.5419, 0.0062, 0.0051, 0.0132, 0.6260, 0.5583, -1.0215, 0.0137, 0.0063, -0.1067, 795, 258797, 0.5000, 0.5000, -1.0000, 0.0000
12.9240, 0.6276, -0.6570, -9.5419, 0.0062, 0.0051, 0.0132, 0.6263, 0.5592, -1.0215, 0.0141, 0.0069, -0.1073, 796, 258797, 0.5000, 0.5000, -1.0000, 0.0000
12.9440, 0.6276, -0.6570, -9.5419, 0.0062, 0.0051, 0.0132, 0.6267, 0.5601, -1.0217, 0.0141, 0.0073, -0.1076, 797, 258797, 0.5000, 0.5000, -1.0000, 0.0000
12.9640, 0.6276, -0.6570, -9.5419, 0.0062, 0.0051, 0.0132, 0.6270, 0.5610, -1.0218, 0.0143, 0.0073, -0.1076, 798, 258797, 0.5000, 0.5000, -1.0000, 0.0000
12.9840, 0.6276, -0.6570, -9.5419, 0.0062, 0.0051, 0.0132, 0.6272, 0.5620, -1.0218, 0.0147, 0.0070, -0.1087, 799, 258797, 0.5000, 0.5000, -1.0000, 0.0000
13.0040, 0.6276, -0.6570, -9.5419, 0.0062, 0.0051, 0.0132, 0.6274, 0.5629, -1.0220, 0.0144, 0.0071, -0.1090, 800, 258797, 0.5000, 0.5000, -1.0000, 0.0000
13.0240, 0.6276, -0.6570, -9.5419, 0.0062, 0.0051, 0.0132, 0.6275, 0.5639, -1.0221, 0.0147, 0.0068, -0.1089, 801, 258797, 0.5000, 0.5000, -1.0000, 0.0000
13.0440, 0.6276, -0.6570, -9.5419, 0.0062, 0.0051, 0.0132, 0.6276, 0.5649, -1.0223, 0.0152, 0.0072, -0.1093, 802, 258797, 0.5000, 0.5000, -1.0000, 0.0000
13.0640, 0.6276, -0.6570, -9.5419, 0.0062, 0.0051, 0.0132, 0.6277, 0.5659, -1.0224, 0.0153, 0.0069, -0.1100, 803, 258797, 0.5000, 0.5000, -1.0000, 0.0000
13.0840, 0.6276, -0.6570, -9.5419, 0.0062, 0.0051, 0.0132, 0.6276, 0.5670, -1.0225, 0.0154, 0.0064, -0.1109, 804, 258797, 0.5000, 0.5000, -1.0000, 0.0000
13.1040, 0.6276, -0.6570, -9.5419, 0.0062, 0.0051, 0.0132, 0.6276, 0.5680, -1.0226, 0.0157, 0.0062, -0.1121, 805, 258797, 0.5000, 0.5000, -1.0000, 0.0000
13.1240, 0.6276, -0.6570, -9.5419, 0.0062, 0.0051, 0.0132, 0.6275, 0.5690, -1.0227, 0.0157, 0.0058, -0.1128, 806, 258797, 0.5000, 0.5000, -1.0000, 0.0000
13.1440, 0.6276, -0.6570, -9.5419, 0.0062, 0.0051, 0.0132, 0.6273, 0.5700, -1.0229, 0.0158, 0.0064, -0.1135, 807, 258797, 0.5000, 0.5000, -1.0000, 0.0000
13.1640, 0.6276, -0.6570, -9.5419, 0.0062, 0.0051, 0.0132, 0.6270, 0.5711, -1.0229, 0.0161, 0.0066, -0.1142, 808, 258797, 0.5000, 0.5000, -1.0000, 0.0000
13.1840, 0.6276, -0.6570, -9.5419, 0.0062, 0.0051, 0.0132, 0.6268, 0.5720, -1.0231, 0.0162, 0.0071, -0.1147, 809, 258797, 0.5000, 0.5000, -1.0000, 0.0000
13.2040, 0.6276, -0.6570, -9.5419, 0.0062, 0.0051, 0.0132, 0.6265, 0.5730, -1.0232, 0.0163, 0.0068, -0.1158, 810, 258797, 0.5000, 0.5000, -1.0000, 0.0000
13.2240, 0.6276, -0.6570, -9.5419, 0.0062, 0.0051, 0.0132, 0.6263, 0.5739, -1.0233, 0.0165, 0.0059, -0.1164, 811, 258797, 0.5000, 0.5000, -1.0000, 0.0000
13.2440, 0.6276, -0.6570, -9.5419, 0.0062, 0.0051, 0.0132, 0.6259, 0.5749, -1.0234, 0.0165, 0.0053, -0.1165, 812, 258797, 0.5000, 0.5000, -1.0000, 0.0000
13.2640, 0.6276, -0.6570, -9.5419, 0.0062, 0.0051, 0.0132, 0.6255, 0.5760, -1.0234, 0.0166, 0.0042, -0.1173, 813, 258797, 0.5000, 0.5000, -1.0000, 0.0000
13.2840, 0.6276, -0.6570, -9.5419, 0.0062, 0.0051, 0.0132, 0.6251, 0.5768, -1.0236, 0.0163, 0.0041, -0.1179, 814, 258797, 0.5000, 0.5000, -1.0000, 0.0000
13.3040, 0.6276, -0.6570, -9.5419, 0.0062, 0.0051, 0.0132, 0.6245, 0.5777, -1.0235, 0.0164, 0.0045, -0.1175, 815, 258797, 0.5000, 0.5000, -1.0000, 0.0000
13.3240, 0.6276, -0.6570, -9.5419, 0.0062, 0.0051, 0.0132, 0.6240, 0.5786, -1.0237, 0.0167, 0.0051, -0.1178, 816, 258797, 0.5000, 0.5000, -1.0000, 0.0000
13.3440, 0.6276, -0.6570, -9.5419, 0.0062, 0.0051, 0.0132, 0.6234, 0.5795, -1.0236, 0.0167, 0.0047, -0.1181, 817, 258797, 0.5000, 0.5000, -1.0000, 0.0000
13.3640, 0.6276, -0.6570, -9.5419, 0.0062, 0.0051, 0.0132, 0.6228, 0.5803, -1.0237, 0.0169, 0.0044, -0.1189, 818, 258797, 0.5000, 0.5000, -1.0000, 0.0000
13.3840, 0.6276, -0.6570, -9.5419, 0.0062, 0.0051, 0.0132, 0.6222, 0.5812, -1.0238, 0.0169, 0.0041, -0.1190, 819, 258797, 0.5000, 0.5000, -1.0000, 0.0000
13.4040, 0.6276, -0.6570, -9.5419, 0.0062, 0.0051, 0.0132, 0.6217, 0.5819, -1.0237, 0.0171, 0.0033, -0.1187, 820, 258797, 0.5000, 0.5000, -1.0000, 0.0000
13.4240, 0.6276, -0.6570, -9.5419, 0.0062, 0.0051, 0.0132, 0.6210, 0.5826, -1.0239, 0.0170, 0.0023, -0.1196, 821, 258797, 0.5000, 0.5000, -1.0000, 0.0000
13.4440, 0.6276, -0.6570, -9.5419, 0.0062, 0.0051, 0.0132, 0.6203, 0.5834, -1.0239, 0.0172, 0.0014, -0.1206, 822, 258797, 0.5000, 0.5000, -1.0000, 0.0000
13.4640, 0.6276, -0.6570, -9.5419, 0.0062, 0.0051, 0.0132, 0.6197, 0.5840, -1.0241, 0.0169, 0.0009, -0.1210, 823, 258797, 0.5000, 0.5000, -1.0000, 0.0000
13.4840, 0.6276, -0.6570, -9.5419, 0.0062, 0.0051, 0.0132, 0.6189, 0.5847, -1.0240, 0.0171, -0.0001, -0.1208, 824, 258797, 0.5000, 0.5000, -1.0000, 0.0000
13.5040, 0.6276, -0.6570, -9.5419, 0.0062, 0.0051, 0.0132, 0.6182, 0.5854, -1.0240, 0.0172, -0.0002, -0.1213, 825, 258797, 0.5000, 0.5000, -1.0000, 0.0000
13.5240, 0.6276, -0.6570, -9.5419, 0.0062, 0.0051, 0.0132, 0.6174, 0.5859, -1.0242, 0.0172, -0.0007, -0.1218, 826, 258797, 0.5000, 0.5000, -1.0000, 0.0000
13.5440, 0.6276, -0.6570, -9.5419, 0.0062, 0.0051, 0.0132, 0.6166, 0.5864, -1.0242, 0.0172, -0.0017, -0.1223, 827, 258797, 0.5000, 0.5000, -1.0000, 0.0000
13.5640, 0.6276, -0.6570, -9.5419, 0.0062, 0.0051, 0.0132, 0.6158, 0.5870, -1.0243, 0.0171, -0.0026, -0.1226, 828, 258797, 0.5000, 0.5000, -1.0000, 0.0000
13.5840, 0.6276, -0.6570, -9.5419, 0.0062, 0.0051, 0.0132, 0.6151, 0.5873, -1.0245, 0.0170, -0.0034, -0.1228, 829, 258797, 0.5000, 0.5000, -1.0000, 0.0000
13.6040, 0.6276, -0.6570, -9.5419, 0.0062, 0.0051, 0.0132, 0.6142, 0.5878, -1.0245, 0.0174, -0.0038, -0.1233, 830, 258797, 0.5000, 0.5000, -1.0000, 0.0000
13.6240, 0.6276, -0.6570, -9.5419, 0.0062, 0.0051, 0.0132, 0.6135, 0.5882, -1.0247, 0.0172, -0.0038, -0.1235, 831, 258797, 0.5000, 0.5000, -1.0000, 0.0000
13.6440, 0.6276, -0.6570, -9.5419, 0.0062, 0.0051, 0.0132, 0.6126, 0.5885, -1.0248, 0.0171, -0.0038, -0.1236, 832, 258797, 0.5000, 0.5000, -1.0000, 0.0000
13.6640, 0.6276, -0.6570, -9.5419, 0.0062, 0.0051, 0.0132, 0.6117, 0.5888, -1.0249, 0.0173, -0.0042, -0.1245, 833, 258797, 0.5000, 0.5000, -1.0000, 0.0000
13.6840, 0.6276, -0.6570, -9.5419, 0.0062, 0.0051, 0.0132, 0.6110, 0.5889, -1.0251, 0.0171, -0.0058, -0.1264, 834, 258797, 0.5000, 0.5000, -1.0000, 0.0000
13.7040, 0.6276, -0.6570, -9.5419, 0.0062, 0.0051, 0.0132, 0.6103, 0.5891, -1.0252, 0.0170, -0.0083, -0.1283, 835, 258797, 0.5000, 0.5000, -1.0000, 0.0000
13.7240, 0.6276, -0.6570, -9.5419, 0.0062, 0.0051, 0.0132, 0.6096, 0.5892, -1.0253, 0.0169, -0.0101, -0.1280, 836, 258797, 0.5000, 0.5000, -1.0000, 0.0000
13.7440, 0.6276, -0.6570, -9.5419, 0.0062, 0.0051, 0.0132, 0.6090, 0.5894, -1.0254, 0.0167, -0.0105, -0.1267, 837, 258797, 0.5000, 0.5000, -1.0000, 0.0000
13.7640, 0.6276, -0.6570, -9.5419, 0.0062, 0.0051, 0.0132, 0.6082, 0.5894, -1.0254, 0.0167, -0.0110, -0.1265, 838, 258797, 0.5000, 0.5000, -1.0000, 0.0000
13.7870, 0.6276, -0.6570, -9.5419, 0.0062, 0.0051, 0.0132, 0.6075, 0.5894, -1.0254, 0.0167, -0.0119, -0.1260, 839, 258797, 0.5000, 0.5000, -1.0000, 0.0000
13.8060, 0.6276, -0.6570, -9.5419, 0.0062, 0.0051, 0.0132, 0.6069, 0.5893, -1.0254, 0.0162, -0.0132, -0.1255, 840, 258797, 0.5000, 0.5000, -1.0000, 0.0000
13.8260, 0.6276, -0.6570, -9.5419, 0.0062, 0.0051, 0.0132, 0.6063, 0.5893, -1.0254, 0.0161, -0.0135, -0.1248, 841, 258797, 0.5000, 0.5000, -1.0000, 0.0000
13.8460, 0.6276, -0.6570, -9.5419, 0.0062, 0.0051, 0.0132, 0.6057, 0.5892, -1.0254, 0.0161, -0.0134, -0.1244, 842, 258797, 0.5000, 0.5000, -1.0000, 0.0000
13.8660, 0.6276, -0.6570, -9.5419, 0.0062, 0.0051, 0.0132, 0.6050, 0.5890, -1.0253, 0.0158, -0.0131, -0.1240, 843, 258797, 0.5000, 0.5000, -1.0000, 0.0000
13.8860, 0.6276, -0.6570, -9.5419, 0.0062, 0.0051, 0.0132, 0.6045, 0.5887, -1.0252, 0.0160, -0.0129, -0.1239, 844, 258797, 0.5000, 0.5000, -1.0000, 0.0000
13.9070, 0.6276, -0.6570, -9.5419, 0.0062, 0.0051, 0.0132, 0.6041, 0.5884, -1.0251, 0.0158, -0.0132, -0.1235, 845, 258797, 0.5000, 0.5000, -1.0000, 0.0000
13.9270, 0.6276, -0.6570, -9.5419, 0.0062, 0.0051, 0.0132, 0.6037, 0.5881, -1.0250, 0.0153, -0.0151, -0.1237, 846, 258797, 0.5000, 0.5000, -1.0000, 0.0000
13.9460, 0.6276, -0.6570, -9.5419, 0.0062, 0.0051, 0.0132, 0.6035, 0.5877, -1.0251, 0.0147, -0.0214, -0.1252, 847, 258797, 0.5000, 0.5000, -1.0000, 0.0000
13.9670, 0.6276, -0.6570, -9.5419, 0.0062, 0.0051, 0.0132, 0.6036, 0.5871, -1.0250, 0.0137, -0.0304, -0.1272, 848, 258797, 0.5000, 0.5000, -1.0000, 0.0000
13.9860, 0.6276, -0.6570, -9.5419, 0.0062, 0.0051, 0.0132, 0.6036, 0.5867, -1.0249, 0.0131, -0.0371, -0.1285, 849, 258797, 0.5000, 0.5000, -1.0000, 0.0000
14.0060, 0.6276, -0.6570, -9.5419, 0.0062, 0.0051, 0.0132, 0.6036, 0.5862, -1.0246, 0.0132, -0.0395, -0.1274, 850, 258797, 0.5000, 0.5000, -1.0000, 0.0000
14.0260, 0.6276, -0.6570, -9.5419, 0.0062, 0.0051, 0.0132, 0.6035, 0.5857, -1.0241, 0.0134, -0.0379, -0.1248, 851, 258797, 0.5000, 0.5000, -1.0000, 0.0000
14.0460, 0.6276, -0.6570, -9.5419, 0.0062, 0.0051, 0.0132, 0.6036, 0.5852, -1.0237, 0.0138, -0.0360, -0.1229, 852, 258797, 0.5000, 0.5000, -1.0000, 0.0000
14.0660, 0.6276, -0.6570, -9.5419, 0.0062, 0.0051, 0.0132, 0.6037, 0.5846, -1.0233, 0.0143, -0.0349, -0.1218, 853, 258797, 0.5000, 0.5000, -1.0000, 0.0000
14.0860, 0.6276, -0.6570, -9.5419, 0.0062, 0.0051, 0.0132, 0.6041, 0.5841, -1.0228, 0.0142, -0.0340, -0.1209, 854, 258797, 0.5000, 0.5000, -1.0000, 0.0000
14.1060, 0.6276, -0.6570, -9.5419, 0.0062, 0.0051, 0.0132, 0.6045, 0.5835, -1.0223, 0.0146, -0.0332, -0.1183, 855, 258797, 0.5000, 0.5000, -1.0000, 0.0000
14.1260, 0.6276, -0.6570, -9.5419, 0.0062, 0.0051, 0.0132, 0.6050, 0.5828, -1.0217, 0.0150, -0.0315, -0.1169, 856, 258797, 0.5000, 0.5000, -1.0000, 0.0000
14.1460, 0.6276, -0.6570, -9.5419, 0.0062, 0.0051, 0.0132, 0.6056, 0.5822, -1.0213, 0.0154, -0.0290, -0.1159, 857, 258797, 0.5000, 0.5000, -1.0000, 0.0000
14.1670, 0.6276, -0.6570, -9.5419, 0.0062, 0.0051, 0.0132, 0.6062, 0.5815, -1.0207, 0.0161, -0.0269, -0.1150, 858, 258797, 0.5000, 0.5000, -1.0000, 0.0000
14.1870, 0.6276, -0.6570, -9.5419, 0.0062, 0.0051, 0.0132, 0.6070, 0.5808, -1.0201, 0.0164, -0.0241, -0.1147, 859, 258797, 0.5000, 0.5000, -1.0000, 0.0000
14.2070, 0.6276, -0.6570, -9.5419, 0.0062, 0.0051, 0.0132, 0.6078, 0.5801, -1.0195, 0.0167, -0.0214, -0.1131, 860, 258797, 0.5000, 0.5000, -1.0000, 0.0000
14.2270, 0.6276, -0.6570, -9.5419, 0.0062, 0.0051, 0.0132, 0.6086, 0.5795, -1.0190, 0.0173, -0.0193, -0.1125, 861, 258797, 0.5000, 0.5000, -1.0000, 0.0000
14.2460, 0.6276, -0.6570, -9.5419, 0.0062, 0.0051, 0.0132, 0.6096, 0.5788, -1.0185, 0.0175, -0.0173, -0.1114, 862, 258797, 0.5000, 0.5000, -1.0000, 0.0000
14.2670, 0.6276, -0.6570, -9.5419, 0.0062, 0.0051, 0.0132, 0.6106, 0.5781, -1.0180, 0.0180, -0.0156, -0.1110, 863, 258797, 0.5000, 0.5000, -1.0000, 0.0000
14.2870, 0.6276, -0.6570, -9.5419, 0.0062, 0.0051, 0.0132, 0.6117, 0.5775, -1.0176, 0.0182, -0.0140, -0.1106, 864, 258797, 0.5000, 0.5000, -1.0000, 0.0000
14.3070, 0.6276, -0.6570, -9.5419, 0.0062, 0.0051, 0.0132, 0.6127, 0.5769, -1.0173, 0.0186, -0.0120, -0.1095, 865, 258797, 0.5000, 0.5000, -1.0000, 0.0000
14.3260, 0.6276, -0.6570, -9.5419, 0.0062, 0.0051, 0.0132, 0.6139, 0.5763, -1.0168, 0.0190, -0.0102, -0.1087, 866, 258797, 0.5000, 0.5000, -1.0000, 0.0000
14.3460, 0.6276, -0.6570, -9.5419, 0.0062, 0.0051, 0.0132, 0.6149, 0.5757, -1.0165, 0.0195, -0.0079, -0.1080, 867, 258797, 0.5000, 0.5000, -1.0000, 0.0000
14.3670, 0.6276, -0.6570, -9.5419, 0.0062, 0.0051, 0.0132, 0.6161, 0.5752, -1.0161, 0.0196, -0.0060, -0.1073, 868, 258797, 0.5000, 0.5000, -1.0000, 0.0000
14.3860, 0.6276, -0.6570, -9.5419, 0.0062, 0.0051, 0.0132, 0.6172, 0.5747, -1.0157, 0.0199, -0.0041, -0.1064, 869, 258797, 0.5000, 0.5000, -1.0000, 0.0000
14.4070, 0.6276, -0.6570, -9.5419, 0.0062, 0.0051, 0.0132, 0.6182, 0.5741, -1.0155, 0.0203, -0.0026, -0.1056, 870, 258797, 0.5000, 0.5000, -1.0000, 0.0000
14.4260, 0.6276, -0.6570, -9.5419, 0.0062, 0.0051, 0.0132, 0.6194, 0.5736, -1.0152, 0.0202, -0.0014, -0.1048, 871, 258797, 0.5000, 0.5000, -1.0000, 0.0000
14.4460, 0.6276, -0.6570, -9.5419, 0.0062, 0.0051, 0.0132, 0.6204, 0.5731, -1.0149, 0.0205, 0.0004, -0.1045, 872, 258797, 0.5000, 0.5000, -1.0000, 0.0000
14.4670, 0.6276, -0.6570, -9.5419, 0.0062, 0.0051, 0.0132, 0.6214, 0.5728, -1.0148, 0.0207, 0.0017, -0.1037, 873, 258797, 0.5000, 0.5000, -1.0000, 0.0000
14.4860, 0.6276, -0.6570, -9.5419, 0.0062, 0.0051, 0.0132, 0.6225, 0.5725, -1.0145, 0.0205, 0.0029, -0.1030, 874, 258797, 0.5000, 0.5000, -1.0000, 0.0000
14.5060, 0.6276, -0.6570, -9.5419, 0.0062, 0.0051, 0.0132, 0.6235, 0.5722, -1.0144, 0.0208, 0.0040, -0.1023, 875, 258797, 0.5000, 0.5000, -1.0000, 0.0000
14.5260, 0.6276, -0.6570, -9.5419, 0.0062, 0.0051, 0.0132, 0.6245, 0.5719, -1.0143, 0.0207, 0.0043, -0.1024, 876, 258797, 0.5000, 0.5000, -1.0000, 0.0000
14.5460, 0.6276, -0.6570, -9.5419, 0.0062, 0.0051, 0.0132, 0.6253, 0.5716, -1.0141, 0.0206, 0.0055, -0.1029, 877, 258797, 0.5000, 0.5000, -1.0000, 0.0000
14.5670, 0.6276, -0.6570, -9.5419, 0.0062, 0.0051, 0.0132, 0.6262, 0.5714, -1.0141, 0.0204, 0.0070, -0.1028, 878, 258797, 0.5000, 0.5000, -1.0000, 0.0000
14.5870, 0.6276, -0.6570, -9.5419, 0.0062, 0.0051, 0.0132, 0.6269, 0.5713, -1.0139, 0.0208, 0.0086, -0.1027, 879, 258797, 0.5000, 0.5000, -1.0000, 0.0000
14.6070, 0.6276, -0.6570, -9.5419, 0.0062, 0.0051, 0.0132, 0.6276, 0.5711, -1.0137, 0.0206, 0.0099, -0.1024, 880, 258797, 0.5000, 0.5000, -1.0000, 0.0000
14.6270, 0.6276, -0.6570, -9.5419, 0.0062, 0.0051, 0.0132, 0.6283, 0.5711, -1.0136, 0.0207, 0.0106, -0.1025, 881, 258797, 0.5000, 0.5000, -1.0000, 0.0000
14.6460, 0.6276, -0.6570, -9.5419, 0.0062, 0.0051, 0.0132, 0.6289, 0.5710, -1.0134, 0.0209, 0.0109, -0.1024, 882, 258797, 0.5000, 0.5000, -1.0000, 0.0000
14.6670, 0.6276, -0.6570, -9.5419, 0.0062, 0.0051, 0.0132, 0.6294, 0.5710, -1.0134, 0.0204, 0.0115, -0.1027, 883, 258797, 0.5000, 0.5000, -1.0000, 0.0000
14.6870, 0.6276, -0.6570, -9.5419, 0.0062, 0.0051, 0.0132, 0.6299, 0.5711, -1.0132, 0.0205, 0.0120, -0.1031, 884, 258797, 0.5000, 0.5000, -1.0000, 0.0000
14.7070, 0.6276, -0.6570, -9.5419, 0.0062, 0.0051, 0.0132, 0.6303, 0.5711, -1.0131, 0.0204, 0.0119, -0.1032, 885, 258797, 0.5000, 0.5000, -1.0000, 0.0000
14.7270, 0.6276, -0.6570, -9.5419, 0.0062, 0.0051, 0.0132, 0.6306, 0.5713, -1.0131, 0.0201, 0.0123, -0.1028, 886, 258797, 0.5000, 0.5000, -1.0000, 0.0000
14.7460, 0.6276, -0.6570, -9.5419, 0.0062, 0.0051, 0.0132, 0.6309, 0.5714, -1.0128, 0.0200, 0.0127, -0.1032, 887, 258797, 0.5000, 0.5000, -1.0000, 0.0000
14.7670, 0.6276, -0.6570, -9.5419, 0.0062, 0.0051, 0.0132, 0.6310, 0.5716, -1.0128, 0.0198, 0.0135, -0.1029, 888, 258797, 0.5000, 0.5000, -1.0000, 0.0000
14.7870, 0.6276, -0.6570, -9.5419, 0.0062, 0.0051, 0.0132, 0.6312, 0.5719, -1.0126, 0.0196, 0.0139, -0.1025, 889, 258797, 0.5000, 0.5000, -1.0000, 0.0000
14.8070, 0.6276, -0.6570, -9.5419, 0.0062, 0.0051, 0.0132, 0.6312, 0.5722, -1.0124, 0.0198, 0.0144, -0.1031, 890, 258797, 0.5000, 0.5000, -1.0000, 0.0000
14.8270, 0.6276, -0.6570, -9.5419, 0.0062, 0.0051, 0.0132, 0.6311, 0.5724, -1.0122, 0.0197, 0.0146, -0.1031, 891, 258797, 0.5000, 0.5000, -1.0000, 0.0000
14.8460, 0.6276, -0.6570, -9.5419, 0.0062, 0.0051, 0.0132, 0.6310, 0.5727, -1.0120, 0.0197, 0.0149, -0.1038, 892, 258797, 0.5000, 0.5000, -1.0000, 0.0000
14.8670, 0.6276, -0.6570, -9.5419, 0.0062, 0.0051, 0.0132, 0.6308, 0.5731, -1.0118, 0.0197, 0.0151, -0.1041, 893, 258797, 0.5000, 0.5000, -1.0000, 0.0000
14.8870, 0.6276, -0.6570, -9.5419, 0.0062, 0.0051, 0.0132, 0.6305, 0.5735, -1.0115, 0.0198, 0.0148, -0.1048, 894, 258797, 0.5000, 0.5000, -1.0000, 0.0000
14.9070, 0.6276, -0.6570, -9.5419, 0.0062, 0.0051, 0.0132, 0.6301, 0.5738, -1.0112, 0.0195, 0.0146, -0.1052, 895, 258797, 0.5000, 0.5000, -1.0000, 0.0000
14.9270, 0.6276, -0.6570, -9.5419, 0.0062, 0.0051, 0.0132, 0.6297, 0.5743, -1.0109, 0.0197, 0.0140, -0.1056, 896, 258797, 0.5000, 0.5000, -1.0000, 0.0000
14.9480, 0.6276, -0.6570, -9.5419, 0.0062, 0.0051, 0.0132, 0.6292, 0.5747, -1.0106, 0.0194, 0.0131, -0.1061, 897, 258797, 0.5000, 0.5000, -1.0000, 0.0000
14.9680, 0.6276, -0.6570, -9.5419, 0.0062, 0.0051, 0.0132, 0.6288, 0.5752, -1.0103, 0.0191, 0.0122, -0.1070, 898, 258797, 0.5000, 0.5000, -1.0000, 0.0000
14.9880, 0.6276, -0.6570, -9.5419, 0.0062, 0.0051, 0.0132, 0.6281, 0.5757, -1.0100, 0.0193, 0.0105, -0.1079, 899, 258797, 0.5000, 0.5000, -1.0000, 0.0000
15.0080, 0.6276, -0.6570, -9.5419, 0.0062, 0.0051, 0.0132, 0.6275, 0.5761, -1.0097, 0.0189, 0.0095, -0.1081, 900, 258797, 0.5000, 0.5000, -1.0000, 0.0000
15.0280, 0.6276, -0.6570, -9.5419, 0.0062, 0.0051, 0.0132, 0.6267, 0.5767, -1.0093, 0.0190, 0.0083, -0.1082, 901, 258797, 0.5000, 0.5000, -1.0000, 0.0000
15.0480, 0.6276, -0.6570, -9.5419, 0.0062, 0.0051, 0.0132, 0.6259, 0.5772, -1.0090, 0.0192, 0.0083, -0.1090, 902, 258797, 0.5000, 0.5000, -1.0000, 0.0000
15.0680, 0.6276, -0.6570, -9.5419, 0.0062, 0.0051, 0.0132, 0.6251, 0.5778, -1.0086, 0.0192, 0.0084, -0.1098, 903, 258797, 0.5000, 0.5000, -1.0000, 0.0000
15.0880, 0.6276, -0.6570, -9.5419, 0.0062, 0.0051, 0.0132, 0.6242, 0.5783, -1.0082, 0.0193, 0.0082, -0.1106, 904, 258797, 0.5000, 0.5000, -1.0000, 0.0000
15.1080, 0.6276, -0.6570, -9.5419, 0.0062, 0.0051, 0.0132, 0.6232, 0.5788, -1.0079, 0.0193, 0.0081, -0.1112, 905, 258797, 0.5000, 0.5000, -1.0000, 0.0000
15.1280, 0.6276, -0.6570, -9.5419, 0.0062, 0.0051, 0.0132, 0.6222, 0.5794, -1.0075, 0.0194, 0.0072, -0.1115, 906, 258797, 0.5000, 0.5000, -1.0000, 0.0000
15.1480, 0.6276, -0.6570, -9.5419, 0.0062, 0.0051, 0.0132, 0.6213, 0.5800, -1.0073, 0.0194, 0.0073, -0.1122, 907, 258797, 0.5000, 0.5000, -1.0000, 0.0000
15.1680, 0.6276, -0.6570, -9.5419, 0.0062, 0.0051, 0.0132, 0.6202, 0.5806, -1.0069, 0.0194, 0.0063, -0.1131, 908, 258797, 0.5000, 0.5000, -1.0000, 0.0000
15.1880, 0.6276, -0.6570, -9.5419, 0.0062, 0.0051, 0.0132, 0.6191, 0.5811, -1.0067, 0.0191, 0.0060, -0.1135, 909, 258797, 0.5000, 0.5000, -1.0000, 0.0000
15.2080, 0.6276, -0.6570, -9.5419, 0.0062, 0.0051, 0.0132, 0.6180, 0.5816, -1.0064, 0.0194, 0.0056, -0.1136, 910, 258797, 0.5000, 0.5000, -1.0000, 0.0000
15.2280, 0.6276, -0.6570, -9.5419, 0.0062, 0.0051, 0.0132, 0.6169, 0.5822, -1.0061, 0.0194, 0.0046, -0.1139, 911, 258797, 0.5000, 0.5000, -1.0000, 0.0000
15.2480, 0.6276, -0.6570, -9.5419, 0.0062, 0.0051, 0.0132, 0.6157, 0.5827, -1.0059, 0.0195, 0.0048, -0.1143, 912, 258797, 0.5000, 0.5000, -1.0000, 0.0000
15.2680, 0.6276, -0.6570, -9.5419, 0.0062, 0.0051, 0.0132, 0.6143, 0.5833, -1.0055, 0.0198, 0.0046, -0.1145, 913, 258797, 0.5000, 0.5000, -1.0000, 0.0000
15.2880, 0.6276, -0.6570, -9.5419, 0.0062, 0.0051, 0.0132, 0.6131, 0.5837, -1.0055, 0.0199, 0.0047, -0.1151, 914, 258797, 0.5000, 0.5000, -1.0000, 0.0000
15.3080, 0.6276, -0.6570, -9.5419, 0.0062, 0.0051, 0.0132, 0.6118, 0.5842, -1.0052, 0.0198, 0.0039, -0.1154, 915, 258797, 0.5000, 0.5000, -1.0000, 0.0000
15.3280, 0.6276, -0.6570, -9.5419, 0.0062, 0.0051, 0.0132, 0.6105, 0.5846, -1.0050, 0.0199, 0.0044, -0.1161, 916, 258797, 0.5000, 0.5000, -1.0000, 0.0000
15.3480, 0.6276, -0.6570, -9.5419, 0.0062, 0.0051, 0.0132, 0.6091, 0.5851, -1.0049, 0.0201, 0.0041, -0.1165, 917, 258797, 0.5000, 0.5000, -1.0000, 0.0000
15.3680, 0.6276, -0.6570, -9.5419, 0.0062, 0.0051, 0.0132, 0.6077, 0.5855, -1.0047, 0.0197, 0.0031, -0.1169, 918, 258797, 0.5000, 0.5000, -1.0000, 0.0000
15.3880, 0.6276, -0.6570, -9.5419, 0.0062, 0.0051, 0.0132, 0.6065, 0.5859, -1.0048, 0.0198, 0.0016, -0.1176, 919, 258797, 0.5000, 0.5000, -1.0000, 0.0000
15.4080, 0.6276, -0.6570, -9.5419, 0.0062, 0.0051, 0.0132, 0.6051, 0.5862, -1.0046, 0.0199, 0.0000, -0.1179, 920, 258797, 0.5000, 0.5000, -1.0000, 0.0000
15.4280, 0.6276, -0.6570, -9.5419, 0.0062, 0.0051, 0.0132, 0.6036, 0.5866, -1.0046, 0.0197, -0.0005, -0.1186, 921, 258797, 0.5000, 0.5000, -1.0000, 0.0000
15.4480, 0.6276, -0.6570, -9.5419, 0.0062, 0.0051, 0.0132, 0.6022, 0.5870, -1.0046, 0.0199, -0.0015, -0.1187, 922, 258797, 0.5000, 0.5000, -1.0000, 0.0000
15.4680, 0.6276, -0.6570, -9.5419, 0.0062, 0.0051, 0.0132, 0.6008, 0.5873, -1.0045, 0.0197, -0.0018, -0.1186, 923, 258797, 0.5000, 0.5000, -1.0000, 0.0000
15.4880, 0.6276, -0.6570, -9.5419, 0.0062, 0.0051, 0.0132, 0.5994, 0.5874, -1.0045, 0.0199, -0.0024, -0.1188, 924, 258797, 0.5000, 0.5000, -1.0000, 0.0000
15.5080, 0.6276, -0.6570, -9.5419, 0.0062, 0.0051, 0.0132, 0.5979, 0.5878, -1.0045, 0.0199, -0.0029, -0.1192, 925, 258797, 0.5000, 0.5000, -1.0000, 0.0000
15.5280, 0.6276, -0.6570, -9.5419, 0.0062, 0.0051, 0.0132, 0.5965, 0.5880, -1.0045, 0.0199, -0.0032, -0.1199, 926, 258797, 0.5000, 0.5000, -1.0000, 0.0000
