time (s), accel_x (m/s^2), accel_y (m/s^2), accel_z (m/s^2), gyro_x (rad/s), gyro_y (rad/s), gyro_z (rad/s), x (m), y (m), z (m), yaw (rad), pitch (rad), roll (rad), mocap_counter, counter, desired x, desired y, desired z, desired yaw
0.0000, -0.4511, 0.2746, -9.5223, 0.0016, 0.0073, 0.0035, -0.0261, -0.0042, -0.0943, -0.0462, 0.0604, -0.0763, 310, 118316, 0.0000, 0.0000, 0.0000, 0.0000
0.0200, -0.4511, 0.2746, -9.5223, 0.0016, 0.0073, 0.0035, -0.0262, -0.0043, -0.0943, -0.0462, 0.0603, -0.0763, 311, 118316, 0.0000, 0.0000, 0.0000, 0.0000
0.0400, -0.4511, 0.2746, -9.5223, 0.0016, 0.0073, 0.0035, -0.0261, -0.0043, -0.0944, -0.0462, 0.0604, -0.0765, 312, 118316, 0.0000, 0.0000, 0.0000, 0.0000
0.0600, -0.4511, 0.2746, -9.5223, 0.0016, 0.0073, 0.0035, -0.0262, -0.0042, -0.0943, -0.0464, 0.0604, -0.0766, 313, 118316, 0.0000, 0.0000, 0.0000, 0.0000
0.0800, -0.4511, 0.2746, -9.5223, 0.0016, 0.0073, 0.0035, -0.0262, -0.0043, -0.0943, -0.0461, 0.0602, -0.0763, 314, 118316, 0.0000, 0.0000, 0.0000, 0.0000
0.1000, -0.4511, 0.2746, -9.5223, 0.0016, 0.0073, 0.0035, -0.0261, -0.0043, -0.0943, -0.0462, 0.0605, -0.0764, 315, 118316, 0.0000, 0.0000, 0.0000, 0.0000
0.1200, -0.4511, 0.2746, -9.5223, 0.0016, 0.0073, 0.0035, -0.0262, -0.0043, -0.0943, -0.0462, 0.0603, -0.0764, 316, 118316, 0.0000, 0.0000, 0.0000, 0.0000
0.1400, -0.4511, 0.2746, -9.5223, 0.0016, 0.0073, 0.0035, -0.0261, -0.0043, -0.0944, -0.0460, 0.0602, -0.0763, 317, 118316, 0.0000, 0.0000, 0.0000, 0.0000
0.1600, -0.4511, 0.2746, -9.5223, 0.0016, 0.0073, 0.0035, -0.0262, -0.0043, -0.0943, -0.0463, 0.0603, -0.0765, 318, 118316, 0.0000, 0.0000, 0.0000, 0.0000
0.1800, -0.4511, 0.2746, -9.5223, 0.0016, 0.0073, 0.0035, -0.0261, -0.0042, -0.0944, -0.0461, 0.0603, -0.0765, 319, 118316, 0.0000, 0.0000, 0.0000, 0.0000
0.2030, -0.4511, 0.2746, -9.5223, 0.0016, 0.0073, 0.0035, -0.0262, -0.0043, -0.0943, -0.0462, 0.0604, -0.0765, 320, 118316, 0.0000, 0.0000, 0.0000, 0.0000
0.2230, -0.4511, 0.2746, -9.5223, 0.0016, 0.0073, 0.0035, -0.0262, -0.0042, -0.0943, -0.0462, 0.0603, -0.0763, 321, 118316, 0.0000, 0.0000, 0.0000, 0.0000
0.2430, -0.4511, 0.2746, -9.5223, 0.0016, 0.0073, 0.0035, -0.0262, -0.0043, -0.0943, -0.0462, 0.0602, -0.0764, 322, 118316, 0.0000, 0.0000, 0.0000, 0.0000
0.2630, -0.4511, 0.2746, -9.5223, 0.0016, 0.0073, 0.0035, -0.0262, -0.0042, -0.0943, -0.0463, 0.0605, -0.0764, 323, 118316, 0.0000, 0.0000, 0.0000, 0.0000
0.2830, -0.4511, 0.2746, -9.5223, 0.0016, 0.0073, 0.0035, -0.0261, -0.0043, -0.0944, -0.0461, 0.0602, -0.0763, 324, 118316, 0.0000, 0.0000, 0.0000, 0.0000
0.3030, -0.4511, 0.2746, -9.5223, 0.0016, 0.0073, 0.0035, -0.0262, -0.0043, -0.0943, -0.0462, 0.0603, -0.0764, 325, 118316, 0.0000, 0.0000, 0.0000, 0.0000
0.3230, -0.4511, 0.2746, -9.5223, 0.0016, 0.0073, 0.0035, -0.0262, -0.0043, -0.0944, -0.0462, 0.0602, -0.0764, 326, 118316, 0.0000, 0.0000, 0.0000, 0.0000
0.3430, -0.4511, 0.2746, -9.5223, 0.0016, 0.0073, 0.0035, -0.0261, -0.0042, -0.0943, -0.0461, 0.0603, -0.0764, 327, 118316, 0.0000, 0.0000, 0.0000, 0.0000
0.3650, -0.4511, 0.2746, -9.5223, 0.0016, 0.0073, 0.0035, -0.0262, -0.0042, -0.0943, -0.0464, 0.0602, -0.0767, 328, 118316, 0.0000, 0.0000, 0.0000, 0.0000
0.3850, -0.4511, 0.2746, -9.5223, 0.0016, 0.0073, 0.0035, -0.0261, -0.0042, -0.0944, -0.0461, 0.0603, -0.0764, 329, 118316, 0.0000, 0.0000, 0.0000, 0.0000
0.4050, -0.4511, 0.2746, -9.5223, 0.0016, 0.0073, 0.0035, -0.0262, -0.0043, -0.0943, -0.0462, 0.0602, -0.0765, 330, 118316, 0.0000, 0.0000, 0.0000, 0.0000
0.4250, -0.4511, 0.2746, -9.5223, 0.0016, 0.0073, 0.0035, -0.0262, -0.0042, -0.0944, -0.0461, 0.0603, -0.0764, 331, 118316, 0.0000, 0.0000, 0.0000, 0.0000
0.4450, -0.4511, 0.2746, -9.5223, 0.0016, 0.0073, 0.0035, -0.0262, -0.0043, -0.0943, -0.0461, 0.0602, -0.0764, 332, 118316, 0.0000, 0.0000, 0.0000, 0.0000
0.4650, -0.4511, 0.2746, -9.5223, 0.0016, 0.0073, 0.0035, -0.0262, -0.0043, -0.0943, -0.0463, 0.0602, -0.0764, 333, 118316, 0.0000, 0.0000, 0.0000, 0.0000
0.4850, -0.4511, 0.2746, -9.5223, 0.0016, 0.0073, 0.0035, -0.0261, -0.0042, -0.0944, -0.0461, 0.0603, -0.0763, 334, 118316, 0.0000, 0.0000, 0.0000, 0.0000
0.5050, -0.4511, 0.2746, -9.5223, 0.0016, 0.0073, 0.0035, -0.0262, -0.0043, -0.0943, -0.0462, 0.0602, -0.0764, 335, 118316, 0.0000, 0.0000, 0.0000, 0.0000
0.5250, -0.4511, 0.2746, -9.5223, 0.0016, 0.0073, 0.0035, -0.0262, -0.0043, -0.0944, -0.0461, 0.0603, -0.0764, 336, 118316, 0.0000, 0.0000, 0.0000, 0.0000
0.5450, -0.4511, 0.2746, -9.5223, 0.0016, 0.0073, 0.0035, -0.0261, -0.0043, -0.0943, -0.0461, 0.0604, -0.0765, 337, 118316, 0.0000, 0.0000, 0.0000, 0.0000
0.5650, -0.4511, 0.2746, -9.5223, 0.0016, 0.0073, 0.0035, -0.0261, -0.0043, -0.0944, -0.0461, 0.0602, -0.0764, 338, 118316, 0.0000, 0.0000, 0.0000, 0.0000
0.5850, -0.4511, 0.2746, -9.5223, 0.0016, 0.0073, 0.0035, -0.0261, -0.0042, -0.0943, -0.0461, 0.0604, -0.0765, 339, 118316, 0.0000, 0.0000, 0.0000, 0.0000
0.6050, -0.4511, 0.2746, -9.5223, 0.0016, 0.0073, 0.0035, -0.0262, -0.0043, -0.0943, -0.0462, 0.0603, -0.0765, 340, 118316, 0.0000, 0.0000, 0.0000, 0.0000
0.6250, -0.4511, 0.2746, -9.5223, 0.0016, 0.0073, 0.0035, -0.0262, -0.0043, -0.0944, -0.0461, 0.0602, -0.0766, 341, 118316, 0.0000, 0.0000, 0.0000, 0.0000
0.6450, -0.4511, 0.2746, -9.5223, 0.0016, 0.0073, 0.0035, -0.0262, -0.0043, -0.0943, -0.0462, 0.0603, -0.0763, 342, 118316, 0.0000, 0.0000, 0.0000, 0.0000
0.6650, -0.4511, 0.2746, -9.5223, 0.0016, 0.0073, 0.0035, -0.0261, -0.0043, -0.0944, -0.0460, 0.0603, -0.0762, 343, 118316, 0.0000, 0.0000, 0.0000, 0.0000
0.6850, -0.4511, 0.2746, -9.5223, 0.0016, 0.0073, 0.0035, -0.0262, -0.0042, -0.0943, -0.0462, 0.0604, -0.0765, 344, 118316, 0.0000, 0.0000, 0.0000, 0.0000
0.7050, -0.4511, 0.2746, -9.5223, 0.0016, 0.0073, 0.0035, -0.0261, -0.0043, -0.0943, -0.0461, 0.0602, -0.0763, 345, 118316, 0.0000, 0.0000, 0.0000, 0.0000
0.7250, -0.4511, 0.2746, -9.5223, 0.0016, 0.0073, 0.0035, -0.0262, -0.0042, -0.0944, -0.0461, 0.0603, -0.0764, 346, 118316, 0.0000, 0.0000, 0.0000, 0.0000
0.7450, -0.4511, 0.2746, -9.5223, 0.0016, 0.0073, 0.0035, -0.0262, -0.0042, -0.0943, -0.0463, 0.0604, -0.0765, 347, 118316, 0.0000, 0.0000, 0.0000, 0.0000
0.7650, -0.4511, 0.2746, -9.5223, 0.0016, 0.0073, 0.0035, -0.0261, -0.0042, -0.0944, -0.0461, 0.0602, -0.0763, 348, 118316, 0.0000, 0.0000, 0.0000, 0.0000
0.7850, -0.4511, 0.2746, -9.5223, 0.0016, 0.0073, 0.0035, -0.0263, -0.0042, -0.0943, -0.0463, 0.0602, -0.0768, 349, 118316, 0.0000, 0.0000, 0.0000, 0.0000
0.8050, -0.4511, 0.2746, -9.5223, 0.0016, 0.0073, 0.0035, -0.0262, -0.0042, -0.0943, -0.0461, 0.0602, -0.0762, 350, 118316, 0.0000, 0.0000, 0.0000, 0.0000
0.8250, -0.4511, 0.2746, -9.5223, 0.0016, 0.0073, 0.0035, -0.0262, -0.0043, -0.0943, -0.0462, 0.0604, -0.0766, 351, 118316, 0.0000, 0.0000, 0.0000, 0.0000
0.8450, -0.4511, 0.2746, -9.5223, 0.0016, 0.0073, 0.0035, -0.0262, -0.0042, -0.0943, -0.0464, 0.0603, -0.0767, 352, 118316, 0.0000, 0.0000, 0.0000, 0.0000
0.8650, -0.4511, 0.2746, -9.5223, 0.0016, 0.0073, 0.0035, -0.0262, -0.0043, -0.0943, -0.0465, 0.0603, -0.0763, 353, 118316, 0.0000, 0.0000, 0.0000, 0.0000
0.8850, -0.4511, 0.2746, -9.5223, 0.0016, 0.0073, 0.0035, -0.0262, -0.0042, -0.0941, -0.0456, 0.0599, -0.0777, 354, 118316, 0.0000, 0.0000, 0.0000, 0.0000
0.9050, -0.4511, 0.2746, -9.5223, 0.0016, 0.0073, 0.0035, -0.0261, -0.0042, -0.0942, -0.0456, 0.0604, -0.0776, 355, 118316, 0.0000, 0.0000, 0.0000, 0.0000
0.9250, -0.4511, 0.2746, -9.5223, 0.0016, 0.0073, 0.0035, -0.0262, -0.0042, -0.0942, -0.0471, 0.0604, -0.0771, 356, 118316, 0.0000, 0.0000, 0.0000, 0.0000
0.9450, -0.4511, 0.2746, -9.5223, 0.0016, 0.0073, 0.0035, -0.0263, -0.0042, -0.0942, -0.0456, 0.0604, -0.0767, 357, 118316, 0.0000, 0.0000, 0.0000, 0.0000
0.9650, -0.4511, 0.2746, -9.5223, 0.0016, 0.0073, 0.0035, -0.0262, -0.0041, -0.0944, -0.0460, 0.0601, -0.0769, 358, 118316, 0.0000, 0.0000, 0.0000, 0.0000
0.9850, -0.4511, 0.2746, -9.5223, 0.0016, 0.0073, 0.0035, -0.0263, -0.0043, -0.0942, -0.0467, 0.0601, -0.0768, 359, 118316, 0.0000, 0.0000, 0.0000, 0.0000
1.0050, -0.4511, 0.2746, -9.5223, 0.0016, 0.0073, 0.0035, -0.0260, -0.0042, -0.0943, -0.0461, 0.0607, -0.0771, 360, 118316, 0.0000, 0.0000, 0.0000, 0.0000
1.0250, -0.4511, 0.2746, -9.5223, 0.0016, 0.0073, 0.0035, -0.0262, -0.0042, -0.0943, -0.0460, 0.0607, -0.0775, 361, 118316, 0.0000, 0.0000, 0.0000, 0.0000
1.0450, -0.4511, 0.2746, -9.5223, 0.0016, 0.0073, 0.0035, -0.0261, -0.0042, -0.0943, -0.0462, 0.0603, -0.0777, 362, 118316, 0.0000, 0.0000, 0.0000, 0.0000
1.0650, -0.4511, 0.2746, -9.5223, 0.0016, 0.0073, 0.0035, -0.0262, -0.0043, -0.0944, -0.0458, 0.0605, -0.0772, 363, 118316, 0.0000, 0.0000, 0.0000, 0.0000
1.0850, -0.4511, 0.2746, -9.5223, 0.0016, 0.0073, 0.0035, -0.0263, -0.0042, -0.0943, -0.0462, 0.0602, -0.0772, 364, 118316, 0.0000, 0.0000, 0.0000, 0.0000
1.1050, -0.4511, 0.2746, -9.5223, 0.0016, 0.0073, 0.0035, -0.0262, -0.0042, -0.0944, -0.0463, 0.0604, -0.0769, 365, 118316, 0.0000, 0.0000, 0.0000, 0.0000
1.1250, -0.4511, 0.2746, -9.5223, 0.0016, 0.0073, 0.0035, -0.0263, -0.0042, -0.0943, -0.0461, 0.0606, -0.0770, 366, 118316, 0.0000, 0.0000, 0.0000, 0.0000
1.1450, -0.4511, 0.2746, -9.5223, 0.0016, 0.0073, 0.0035, -0.0261, -0.0042, -0.0944, -0.0464, 0.0605, -0.0768, 367, 118316, 0.0000, 0.0000, 0.0000, 0.0000
1.1650, -0.4511, 0.2746, -9.5223, 0.0016, 0.0073, 0.0035, -0.0263, -0.0042, -0.0944, -0.0462, 0.0605, -0.0773, 368, 118316, 0.0000, 0.0000, 0.0000, 0.0000
1.1850, -0.4511, 0.2746, -9.5223, 0.0016, 0.0073, 0.0035, -0.0262, -0.0042, -0.0943, -0.0462, 0.0602, -0.0766, 369, 118316, 0.0000, 0.0000, 0.0000, 0.0000
1.2050, -0.4511, 0.2746, -9.5223, 0.0016, 0.0073, 0.0035, -0.0262, -0.0042, -0.0944, -0.0462, 0.0601, -0.0768, 370, 118316, 0.0000, 0.0000, 0.0000, 0.0000
1.2250, -0.4511, 0.2746, -9.5223, 0.0016, 0.0073, 0.0035, -0.0262, -0.0043, -0.0943, -0.0463, 0.0599, -0.0766, 371, 118316, 0.0000, 0.0000, 0.0000, 0.0000
1.2450, -0.4511, 0.2746, -9.5223, 0.0016, 0.0073, 0.0035, -0.0262, -0.0042, -0.0944, -0.0461, 0.0602, -0.0769, 372, 118316, 0.0000, 0.0000, 0.0000, 0.0000
1.2650, -0.4511, 0.2746, -9.5223, 0.0016, 0.0073, 0.0035, -0.0263, -0.0042, -0.0943, -0.0465, 0.0598, -0.0771, 373, 118316, 0.0000, 0.0000, 0.0000, 0.0000
1.2850, -0.4511, 0.2746, -9.5223, 0.0016, 0.0073, 0.0035, -0.0262, -0.0042, -0.0944, -0.0461, 0.0600, -0.0768, 374, 118316, 0.0000, 0.0000, 0.0000, 0.0000
1.3050, -0.4511, 0.2746, -9.5223, 0.0016, 0.0073, 0.0035, -0.0263, -0.0042, -0.0943, -0.0466, 0.0599, -0.0770, 375, 118316, 0.0000, 0.0000, 0.0000, 0.0000
1.3250, -0.4511, 0.2746, -9.5223, 0.0016, 0.0073, 0.0035, -0.0262, -0.0042, -0.0944, -0.0462, 0.0601, -0.0768, 376, 118316, 0.0000, 0.0000, 0.0000, 0.0000
1.3450, -0.4511, 0.2746, -9.5223, 0.0016, 0.0073, 0.0035, -0.0262, -0.0042, -0.0943, -0.0464, 0.0600, -0.0767, 377, 118316, 0.0000, 0.0000, 0.0000, 0.0000
1.3650, -0.4511, 0.2746, -9.5223, 0.0016, 0.0073, 0.0035, -0.0263, -0.0041, -0.0943, -0.0465, 0.0603, -0.0769, 378, 118316, 0.0000, 0.0000, 0.0000, 0.0000
1.3850, -0.4511, 0.2746, -9.5223, 0.0016, 0.0073, 0.0035, -0.0261, -0.0042, -0.0944, -0.0464, 0.0599, -0.0765, 379, 118316, 0.0000, 0.0000, 0.0000, 0.0000
1.4050, -0.4511, 0.2746, -9.5223, 0.0016, 0.0073, 0.0035, -0.0262, -0.0041, -0.0943, -0.0463, 0.0602, -0.0772, 380, 118316, 0.0000, 0.0000, 0.0000, 0.0000
1.4250, -0.4511, 0.2746, -9.5223, 0.0016, 0.0073, 0.0035, -0.0262, -0.0042, -0.0943, -0.0464, 0.0602, -0.0770, 381, 118316, 0.0000, 0.0000, 0.0000, 0.0000
1.4450, -0.4511, 0.2746, -9.5223, 0.0016, 0.0073, 0.0035, -0.0261, -0.0042, -0.0942, -0.0460, 0.0600, -0.0776, 382, 118316, 0.0000, 0.0000, 0.0000, 0.0000
1.4650, -0.4511, 0.2746, -9.5223, 0.0016, 0.0073, 0.0035, -0.0262, -0.0042, -0.0943, -0.0460, 0.0601, -0.0773, 383, 118316, 0.0000, 0.0000, 0.0000, 0.0000
1.4850, -0.4511, 0.2746, -9.5223, 0.0016, 0.0073, 0.0035, -0.0262, -0.0043, -0.0943, -0.0463, 0.0602, -0.0767, 384, 118316, 0.0000, 0.0000, 0.0000, 0.0000
1.5050, -0.4511, 0.2746, -9.5223, 0.0016, 0.0073, 0.0035, -0.0263, -0.0042, -0.0943, -0.0463, 0.0602, -0.0774, 385, 118316, 0.0000, 0.0000, 0.0000, 0.0000
1.5250, -0.4511, 0.2746, -9.5223, 0.0016, 0.0073, 0.0035, -0.0261, -0.0042, -0.0942, -0.0464, 0.0602, -0.0771, 386, 118316, 0.0000, 0.0000, 0.0000, 0.0000
1.5450, -0.4511, 0.2746, -9.5223, 0.0016, 0.0073, 0.0035, -0.0262, -0.0041, -0.0943, -0.0464, 0.0603, -0.0772, 387, 118316, 0.0000, 0.0000, 0.0000, 0.0000
1.5650, -0.4511, 0.2746, -9.5223, 0.0016, 0.0073, 0.0035, -0.0262, -0.0041, -0.0942, -0.0464, 0.0602, -0.0768, 388, 118316, 0.0000, 0.0000, 0.0000, 0.0000
1.5850, -0.4511, 0.2746, -9.5223, 0.0016, 0.0073, 0.0035, -0.0262, -0.0043, -0.0943, -0.0461, 0.0599, -0.0772, 389, 118316, 0.0000, 0.0000, 0.0000, 0.0000
1.6050, -0.4511, 0.2746, -9.5223, 0.0016, 0.0073, 0.0035, -0.0262, -0.0042, -0.0943, -0.0459, 0.0602, -0.0774, 390, 118316, 0.0000, 0.0000, 0.0000, 0.0000
1.6250, -0.4511, 0.2746, -9.5223, 0.0016, 0.0073, 0.0035, -0.0262, -0.0043, -0.0943, -0.0465, 0.0600, -0.0769, 391, 118316, 0.0000, 0.0000, 0.0000, 0.0000
1.6450, -0.4511, 0.2746, -9.5223, 0.0016, 0.0073, 0.0035, -0.0263, -0.0042, -0.0943, -0.0462, 0.0603, -0.0772, 392, 118316, 0.0000, 0.0000, 0.0000, 0.0000
1.6650, -0.4511, 0.2746, -9.5223, 0.0016, 0.0073, 0.0035, -0.0261, -0.0041, -0.0943, -0.0464, 0.0605, -0.0767, 393, 118316, 0.0000, 0.0000, 0.0000, 0.0000
1.6850, -0.4511, 0.2746, -9.5223, 0.0016, 0.0073, 0.0035, -0.0262, -0.0042, -0.0945, -0.0460, 0.0602, -0.0775, 394, 118316, 0.0000, 0.0000, 0.0000, 0.0000
1.7050, -0.4511, 0.2746, -9.5223, 0.0016, 0.0073, 0.0035, -0.0262, -0.0041, -0.0945, -0.0462, 0.0601, -0.0771, 395, 118316, 0.0000, 0.0000, 0.0000, 0.0000
1.7250, -0.4511, 0.2746, -9.5223, 0.0016, 0.0073, 0.0035, -0.0261, -0.0042, -0.0948, -0.0460, 0.0598, -0.0771, 396, 118316, 0.0000, 0.0000, 0.0000, 0.0000
1.7450, -0.4511, 0.2746, -9.5223, 0.0016, 0.0073, 0.0035, -0.0261, -0.0041, -0.0950, -0.0462, 0.0595, -0.0765, 397, 118316, 0.0000, 0.0000, 0.0000, 0.0000
1.7650, -0.4511, 0.2746, -9.5223, 0.0016, 0.0073, 0.0035, -0.0259, -0.0041, -0.0956, -0.0455, 0.0588, -0.0753, 398, 118316, 0.0000, 0.0000, 0.0000, 0.0000
1.7850, -0.4511, 0.2746, -9.5223, 0.0016, 0.0073, 0.0035, -0.0258, -0.0041, -0.0960, -0.0438, 0.0601, -0.0731, 399, 118316, 0.0000, 0.0000, 0.0000, 0.0000
1.8050, -0.4511, 0.2746, -9.5223, 0.0016, 0.0073, 0.0035, -0.0254, -0.0041, -0.0963, -0.0425, 0.0625, -0.0680, 400, 118316, 0.0000, 0.0000, 0.0000, 0.0000
1.8250, -0.4511, 0.2746, -9.5223, 0.0016, 0.0073, 0.0035, -0.0249, -0.0042, -0.0968, -0.0413, 0.0648, -0.0631, 401, 118316, 0.0000, 0.0000, 0.0000, 0.0000
1.8450, -0.4511, 0.2746, -9.5223, 0.0016, 0.0073, 0.0035, -0.0241, -0.0042, -0.0973, -0.0397, 0.0669, -0.0581, 402, 118316, 0.0000, 0.0000, 0.0000, 0.0000
1.8650, -0.4511, 0.2746, -9.5223, 0.0016, 0.0073, 0.0035, -0.0231, -0.0047, -0.0982, -0.0381, 0.0696, -0.0540, 403, 118316, 0.0000, 0.0000, 0.0000, 0.0000
1.8850, -0.4511, 0.2746, -9.5223, 0.0016, 0.0073, 0.0035, -0.0220, -0.0049, -0.0989, -0.0363, 0.0723, -0.0510, 404, 118316, 0.0000, 0.0000, 0.0000, 0.0000
1.9050, -0.4511, 0.2746, -9.5223, 0.0016, 0.0073, 0.0035, -0.0209, -0.0053, -0.0999, -0.0345, 0.0756, -0.0479, 405, 118316, 0.0000, 0.0000, 0.0000, 0.0000
1.9250, -0.4511, 0.2746, -9.5223, 0.0016, 0.0073, 0.0035, -0.0196, -0.0057, -0.1014, -0.0332, 0.0791, -0.0453, 406, 118316, 0.0000, 0.0000, 0.0000, 0.0000
1.9450, -0.4511, 0.2746, -9.5223, 0.0016, 0.0073, 0.0035, -0.0182, -0.0063, -0.1031, -0.0314, 0.0826, -0.0437, 407, 118316, 0.0000, 0.0000, 0.0000, 0.0000
1.9650, -0.4511, 0.2746, -9.5223, 0.0016, 0.0073, 0.0035, -0.0167, -0.0067, -0.1053, -0.0294, 0.0858, -0.0423, 408, 118316, 0.0000, 0.0000, 0.0000, 0.0000
1.9850, -0.4511, 0.2746, -9.5223, 0.0016, 0.0073, 0.0035, -0.0151, -0.0071, -0.1078, -0.0276, 0.0898, -0.0407, 409, 118316, 0.0000, 0.0000, 0.0000, 0.0000
2.0050, -0.4511, 0.2746, -9.5223, 0.0016, 0.0073, 0.0035, -0.0135, -0.0075, -0.1105, -0.0259, 0.0925, -0.0409, 410, 118316, 0.0000, 0.0000, 0.0000, 0.0000
2.0250, -0.4511, 0.2746, -9.5223, 0.0016, 0.0073, 0.0035, -0.0119, -0.0078, -0.1136, -0.0240, 0.0955, -0.0410, 411, 118316, 0.0000, 0.0000, 0.0000, 0.0000
2.0450, -0.4511, 0.2746, -9.5223, 0.0016, 0.0073, 0.0035, -0.0101, -0.0081, -0.1168, -0.0224, 0.0978, -0.0410, 412, 118316, 0.0000, 0.0000, 0.0000, 0.0000
2.0650, -0.4511, 0.2746, -9.5223, 0.0016, 0.0073, 0.0035, -0.0083, -0.0085, -0.1201, -0.0204, 0.1009, -0.0410, 413, 118316, 0.0000, 0.0000, 0.0000, 0.0000
2.0850, -0.4511, 0.2746, -9.5223, 0.0016, 0.0073, 0.0035, -0.0067, -0.0088, -0.1234, -0.0185, 0.1044, -0.0399, 414, 118316, 0.0000, 0.0000, 0.0000, 0.0000
2.1050, -0.4511, 0.2746, -9.5223, 0.0016, 0.0073, 0.0035, -0.0049, -0.0088, -0.1268, -0.0166, 0.1068, -0.0391, 415, 118316, 0.0000, 0.0000, 0.0000, 0.0000
2.1250, -0.4511, 0.2746, -9.5223, 0.0016, 0.0073, 0.0035, -0.0034, -0.0088, -0.1302, -0.0152, 0.1099, -0.0378, 416, 118316, 0.0000, 0.0000, 0.0000, 0.0000
2.1450, -0.4511, 0.2746, -9.5223, 0.0016, 0.0073, 0.0035, -0.0017, -0.0087, -0.1338, -0.0135, 0.1119, -0.0379, 417, 118316, 0.0000, 0.0000, 0.0000, 0.0000
2.1650, -0.4511, 0.2746, -9.5223, 0.0016, 0.0073, 0.0035, -0.0001, -0.0087, -0.1369, -0.0123, 0.1136, -0.0380, 418, 118316, 0.0000, 0.0000, 0.0000, 0.0000
2.1860, -0.4511, 0.2746, -9.5223, 0.0016, 0.0073, 0.0035, 0.0016, -0.0086, -0.1404, -0.0110, 0.1153, -0.0391, 419, 118316, 0.0000, 0.0000, 0.0000, 0.0000
2.2060, -0.4511, 0.2746, -9.5223, 0.0016, 0.0073, 0.0035, 0.0030, -0.0084, -0.1434, -0.0093, 0.1168, -0.0415, 420, 118316, 0.0000, 0.0000, 0.0000, 0.0000
2.2260, -0.4511, 0.2746, -9.5223, 0.0016, 0.0073, 0.0035, 0.0045, -0.0082, -0.1465, -0.0082, 0.1188, -0.0410, 421, 118316, 0.0000, 0.0000, 0.0000, 0.0000
2.2460, -0.4511, 0.2746, -9.5223, 0.0016, 0.0073, 0.0035, 0.0060, -0.0076, -0.1493, -0.0069, 0.1206, -0.0411, 422, 118316, 0.0000, 0.0000, 0.0000, 0.0000
2.2660, -0.4511, 0.2746, -9.5223, 0.0016, 0.0073, 0.0035, 0.0073, -0.0073, -0.1521, -0.0057, 0.1227, -0.0401, 423, 118316, 0.0000, 0.0000, 0.0000, 0.0000
2.2860, -0.4511, 0.2746, -9.5223, 0.0016, 0.0073, 0.0035, 0.0086, -0.0067, -0.1549, -0.0040, 0.1243, -0.0394, 424, 118316, 0.0000, 0.0000, 0.0000, 0.0000
2.3060, -0.4511, 0.2746, -9.5223, 0.0016, 0.0073, 0.0035, 0.0097, -0.0062, -0.1575, -0.0029, 0.1251, -0.0398, 425, 118316, 0.0000, 0.0000, 0.0000, 0.0000
2.3260, -0.4511, 0.2746, -9.5223, 0.0016, 0.0073, 0.0035, 0.0111, -0.0055, -0.1599, -0.0018, 0.1258, -0.0391, 426, 118316, 0.0000, 0.0000, 0.0000, 0.0000
2.3460, -0.4511, 0.2746, -9.5223, 0.0016, 0.0073, 0.0035, 0.0122, -0.0049, -0.1625, -0.0001, 0.1258, -0.0413, 427, 118316, 0.0000, 0.0000, 0.0000, 0.0000
2.3660, -0.4511, 0.2746, -9.5223, 0.0016, 0.0073, 0.0035, 0.0131, -0.0042, -0.1647, 0.0014, 0.1252, -0.0426, 428, 118316, 0.0000, 0.0000, 0.0000, 0.0000
2.3860, -0.4511, 0.2746, -9.5223, 0.0016, 0.0073, 0.0035, 0.0140, -0.0033, -0.1670, 0.0027, 0.1243, -0.0429, 429, 118316, 0.0000, 0.0000, 0.0000, 0.0000
2.4060, -0.4511, 0.2746, -9.5223, 0.0016, 0.0073, 0.0035, 0.0149, -0.0025, -0.1689, 0.0039, 0.1239, -0.0438, 430, 118316, 0.0000, 0.0000, 0.0000, 0.0000
2.4260, -0.4511, 0.2746, -9.5223, 0.0016, 0.0073, 0.0035, 0.0158, -0.0018, -0.1709, 0.0054, 0.1220, -0.0453, 431, 118316, 0.0000, 0.0000, 0.0000, 0.0000
2.4460, -0.4511, 0.2746, -9.5223, 0.0016, 0.0073, 0.0035, 0.0165, -0.0010, -0.1727, 0.0063, 0.1204, -0.0465, 432, 118316, 0.0000, 0.0000, 0.0000, 0.0000
2.4660, -0.4511, 0.2746, -9.5223, 0.0016, 0.0073, 0.0035, 0.0173, -0.0000, -0.1742, 0.0078, 0.1175, -0.0484, 433, 118316, 0.0000, 0.0000, 0.0000, 0.0000
2.4860, -0.4511, 0.2746, -9.5223, 0.0016, 0.0073, 0.0035, 0.0181, 0.0007, -0.1756, 0.0091, 0.1147, -0.0494, 434, 118316, 0.0000, 0.0000, 0.0000, 0.0000
2.5060, -0.4511, 0.2746, -9.5223, 0.0016, 0.0073, 0.0035, 0.0186, 0.0017, -0.1768, 0.0104, 0.1127, -0.0510, 435, 118316, 0.0000, 0.0000, 0.0000, 0.0000
2.5260, -0.4511, 0.2746, -9.5223, 0.0016, 0.0073, 0.0035, 0.0192, 0.0027, -0.1779, 0.0116, 0.1108, -0.0518, 436, 118316, 0.0000, 0.0000, 0.0000, 0.0000
2.5460, -0.4511, 0.2746, -9.5223, 0.0016, 0.0073, 0.0035, 0.0198, 0.0035, -0.1788, 0.0126, 0.1093, -0.0519, 437, 118316, 0.0000, 0.0000, 0.0000, 0.0000
2.5660, -0.4511, 0.2746, -9.5223, 0.0016, 0.0073, 0.0035, 0.0204, 0.0045, -0.1796, 0.0141, 0.1084, -0.0521, 438, 118316, 0.0000, 0.0000, 0.0000, 0.0000
2.5860, -0.4511, 0.2746, -9.5223, 0.0016, 0.0073, 0.0035, 0.0210, 0.0054, -0.1803, 0.0149, 0.1079, -0.0522, 439, 118316, 0.0000, 0.0000, 0.0000, 0.0000
2.6060, -0.4511, 0.2746, -9.5223, 0.0016, 0.0073, 0.0035, 0.0213, 0.0064, -0.1809, 0.0161, 0.1081, -0.0521, 440, 118316, 0.0000, 0.0000, 0.0000, 0.0000
2.6260, -0.4511, 0.2746, -9.5223, 0.0016, 0.0073, 0.0035, 0.0219, 0.0074, -0.1816, 0.0170, 0.1080, -0.0526, 441, 118316, 0.0000, 0.0000, 0.0000, 0.0000
2.6460, -0.4511, 0.2746, -9.5223, 0.0016, 0.0073, 0.0035, 0.0222, 0.0084, -0.1820, 0.0183, 0.1073, -0.0535, 442, 118316, 0.0000, 0.0000, 0.0000, 0.0000
2.6660, -0.4511, 0.2746, -9.5223, 0.0016, 0.0073, 0.0035, 0.0227, 0.0093, -0.1827, 0.0190, 0.1073, -0.0543, 443, 118316, 0.0000, 0.0000, 0.0000, 0.0000
2.6860, -0.4511, 0.2746, -9.5223, 0.0016, 0.0073, 0.0035, 0.0230, 0.0102, -0.1832, 0.0202, 0.1075, -0.0546, 444, 118316, 0.0000, 0.0000, 0.0000, 0.0000
2.7060, -0.4511, 0.2746, -9.5223, 0.0016, 0.0073, 0.0035, 0.0233, 0.0111, -0.1836, 0.0212, 0.1075, -0.0554, 445, 118316, 0.0000, 0.0000, 0.0000, 0.0000
2.7260, -0.4511, 0.2746, -9.5223, 0.0016, 0.0073, 0.0035, 0.0237, 0.0120, -0.1842, 0.0221, 0.1074, -0.0556, 446, 118316, 0.0000, 0.0000, 0.0000, 0.0000
2.7460, -0.4511, 0.2746, -9.5223, 0.0016, 0.0073, 0.0035, 0.0238, 0.0130, -0.1845, 0.0234, 0.1066, -0.0567, 447, 118316, 0.0000, 0.0000, 0.0000, 0.0000
2.7660, -0.4511, 0.2746, -9.5223, 0.0016, 0.0073, 0.0035, 0.0242, 0.0140, -0.1850, 0.0241, 0.1054, -0.0570, 448, 118316, 0.0000, 0.0000, 0.0000, 0.0000
2.7860, -0.4511, 0.2746, -9.5223, 0.0016, 0.0073, 0.0035, 0.0244, 0.0148, -0.1854, 0.0253, 0.1043, -0.0578, 449, 118316, 0.0000, 0.0000, 0.0000, 0.0000
2.8060, -0.4511, 0.2746, -9.5223, 0.0016, 0.0073, 0.0035, 0.0246, 0.0157, -0.1859, 0.0258, 0.1039, -0.0579, 450, 118316, 0.0000, 0.0000, 0.0000, 0.0000
2.8260, -0.4511, 0.2746, -9.5223, 0.0016, 0.0073, 0.0035, 0.0249, 0.0165, -0.1862, 0.0267, 0.1042, -0.0588, 451, 118316, 0.0000, 0.0000, 0.0000, 0.0000
2.8460, -0.4511, 0.2746, -9.5223, 0.0016, 0.0073, 0.0035, 0.0249, 0.0174, -0.1865, 0.0275, 0.1037, -0.0599, 452, 118316, 0.0000, 0.0000, 0.0000, 0.0000
2.8660, -0.4511, 0.2746, -9.5223, 0.0016, 0.0073, 0.0035, 0.0253, 0.0182, -0.1870, 0.0279, 0.1027, -0.0596, 453, 118316, 0.0000, 0.0000, 0.0000, 0.0000
2.8860, -0.4511, 0.2746, -9.5223, 0.0016, 0.0073, 0.0035, 0.0254, 0.0189, -0.1872, 0.0285, 0.1016, -0.0600, 454, 118316, 0.0000, 0.0000, 0.0000, 0.0000
2.9060, -0.4511, 0.2746, -9.5223, 0.0016, 0.0073, 0.0035, 0.0258, 0.0197, -0.1877, 0.0292, 0.0999, -0.0604, 455, 118316, 0.0000, 0.0000, 0.0000, 0.0000
2.9260, -0.4511, 0.2746, -9.5223, 0.0016, 0.0073, 0.0035, 0.0261, 0.0204, -0.1880, 0.0298, 0.0980, -0.0605, 456, 118316, 0.0000, 0.0000, 0.0000, 0.0000
2.9460, -0.4511, 0.2746, -9.5223, 0.0016, 0.0073, 0.0035, 0.0263, 0.0211, -0.1884, 0.0303, 0.0968, -0.0599, 457, 118316, 0.0000, 0.0000, 0.0000, 0.0000
2.9660, -0.4511, 0.2746, -9.5223, 0.0016, 0.0073, 0.0035, 0.0267, 0.0218, -0.1889, 0.0307, 0.0955, -0.0596, 458, 118316, 0.0000, 0.0000, 0.0000, 0.0000
2.9860, -0.4511, 0.2746, -9.5223, 0.0016, 0.0073, 0.0035, 0.0269, 0.0224, -0.1892, 0.0313, 0.0954, -0.0594, 459, 118316, 0.0000, 0.0000, 0.0000, 0.0000
3.0060, -0.4511, 0.2746, -9.5223, 0.0016, 0.0073, 0.0035, 0.0273, 0.0231, -0.1898, 0.0313, 0.0957, -0.0589, 460, 118316, 0.0000, 0.0000, 0.0000, 0.0000
3.0260, -0.4511, 0.2746, -9.5223, 0.0016, 0.0073, 0.0035, 0.0276, 0.0236, -0.1901, 0.0320, 0.0959, -0.0593, 461, 118316, 0.0000, 0.0000, 0.0000, 0.0000
3.0460, -0.4511, 0.2746, -9.5223, 0.0016, 0.0073, 0.0035, 0.0280, 0.0242, -0.1907, 0.0323, 0.0969, -0.0589, 462, 118316, 0.0000, 0.0000, 0.0000, 0.0000
3.0660, -0.4511, 0.2746, -9.5223, 0.0016, 0.0073, 0.0035, 0.0283, 0.0247, -0.1912, 0.0326, 0.0970, -0.0587, 463, 118316, 0.0000, 0.0000, 0.0000, 0.0000
3.0860, -0.4511, 0.2746, -9.5223, 0.0016, 0.0073, 0.0035, 0.0288, 0.0252, -0.1916, 0.0333, 0.0971, -0.0595, 464, 118316, 0.0000, 0.0000, 0.0000, 0.0000
3.1060, -0.4511, 0.2746, -9.5223, 0.0016, 0.0073, 0.0035, 0.0294, 0.0257, -0.1922, 0.0333, 0.0970, -0.0597, 465, 118316, 0.0000, 0.0000, 0.0000, 0.0000
3.1260, -0.4511, 0.2746, -9.5223, 0.0016, 0.0073, 0.0035, 0.0298, 0.0262, -0.1925, 0.0342, 0.0971, -0.0606, 466, 118316, 0.0000, 0.0000, 0.0000, 0.0000
3.1460, -0.4511, 0.2746, -9.5223, 0.0016, 0.0073, 0.0035, 0.0305, 0.0267, -0.1928, 0.0345, 0.0968, -0.0604, 467, 118316, 0.0000, 0.0000, 0.0000, 0.0000
3.1660, -0.4511, 0.2746, -9.5223, 0.0016, 0.0073, 0.0035, 0.0309, 0.0270, -0.1932, 0.0348, 0.0974, -0.0606, 468, 118316, 0.0000, 0.0000, 0.0000, 0.0000
3.1860, -0.4511, 0.2746, -9.5223, 0.0016, 0.0073, 0.0035, 0.0315, 0.0275, -0.1935, 0.0351, 0.0973, -0.0608, 469, 118316, 0.0000, 0.0000, 0.0000, 0.0000
3.2060, -0.4511, 0.2746, -9.5223, 0.0016, 0.0073, 0.0035, 0.0321, 0.0279, -0.1938, 0.0354, 0.0974, -0.0602, 470, 118316, 0.0000, 0.0000, 0.0000, 0.0000
3.2260, -0.4511, 0.2746, -9.5223, 0.0016, 0.0073, 0.0035, 0.0326, 0.0283, -0.1940, 0.0355, 0.0980, -0.0607, 471, 118316, 0.0000, 0.0000, 0.0000, 0.0000
3.2460, -0.4511, 0.2746, -9.5223, 0.0016, 0.0073, 0.0035, 0.0333, 0.0286, -0.1943, 0.0359, 0.0983, -0.0602, 472, 118316, 0.0000, 0.0000, 0.0000, 0.0000
3.2660, -0.4511, 0.2746, -9.5223, 0.0016, 0.0073, 0.0035, 0.0339, 0.0289, -0.1944, 0.0362, 0.0980, -0.0604, 473, 118316, 0.0000, 0.0000, 0.0000, 0.0000
3.2860, -0.4511, 0.2746, -9.5223, 0.0016, 0.0073, 0.0035, 0.0347, 0.0291, -0.1947, 0.0365, 0.0979, -0.0608, 474, 118316, 0.0000, 0.0000, 0.0000, 0.0000
3.3060, -0.4511, 0.2746, -9.5223, 0.0016, 0.0073, 0.0035, 0.0356, 0.0294, -0.1948, 0.0365, 0.0974, -0.0613, 475, 118316, 0.0000, 0.0000, 0.0000, 0.0000
3.3260, -0.4511, 0.2746, -9.5223, 0.0016, 0.0073, 0.0035, 0.0362, 0.0296, -0.1950, 0.0366, 0.0977, -0.0617, 476, 118316, 0.0000, 0.0000, 0.0000, 0.0000
3.3460, -0.4511, 0.2746, -9.5223, 0.0016, 0.0073, 0.0035, 0.0370, 0.0297, -0.1951, 0.0369, 0.0979, -0.0619, 477, 118316, 0.0000, 0.0000, 0.0000, 0.0000
3.3660, -0.4511, 0.2746, -9.5223, 0.0016, 0.0073, 0.0035, 0.0377, 0.0299, -0.1951, 0.0374, 0.0979, -0.0621, 478, 118316, 0.0000, 0.0000, 0.0000, 0.0000
3.3860, -0.4511, 0.2746, -9.5223, 0.0016, 0.0073, 0.0035, 0.0387, 0.0301, -0.1952, 0.0380, 0.0983, -0.0620, 479, 118316, 0.0000, 0.0000, 0.0000, 0.0000
3.4060, -0.4511, 0.2746, -9.5223, 0.0016, 0.0073, 0.0035, 0.0394, 0.0303, -0.1950, 0.0384, 0.0991, -0.0611, 480, 118316, 0.0000, 0.0000, 0.0000, 0.0000
3.4260, -0.4511, 0.2746, -9.5223, 0.0016, 0.0073, 0.0035, 0.0402, 0.0303, -0.1951, 0.0384, 0.1004, -0.0600, 481, 118316, 0.0000, 0.0000, 0.0000, 0.0000
3.4460, -0.4511, 0.2746, -9.5223, 0.0016, 0.0073, 0.0035, 0.0411, 0.0303, -0.1949, 0.0389, 0.1014, -0.0585, 482, 118316, 0.0000, 0.0000, 0.0000, 0.0000
3.4660, -0.4511, 0.2746, -9.5223, 0.0016, 0.0073, 0.0035, 0.0418, 0.0304, -0.1947, 0.0392, 0.1028, -0.0579, 483, 118316, 0.0000, 0.0000, 0.0000, 0.0000
3.4860, -0.4511, 0.2746, -9.5223, 0.0016, 0.0073, 0.0035, 0.0428, 0.0305, -0.1946, 0.0394, 0.1034, -0.0571, 484, 118316, 0.0000, 0.0000, 0.0000, 0.0000
3.5060, -0.4511, 0.2746, -9.5223, 0.0016, 0.0073, 0.0035, 0.0436, 0.0305, -0.1942, 0.0399, 0.1038, -0.0573, 485, 118316, 0.0000, 0.0000, 0.0000, 0.0000
3.5260, -0.4511, 0.2746, -9.5223, 0.0016, 0.0073, 0.0035, 0.0445, 0.0305, -0.1939, 0.0400, 0.1049, -0.0568, 486, 118316, 0.0000, 0.0000, 0.0000, 0.0000
3.5460, -0.4511, 0.2746, -9.5223, 0.0016, 0.0073, 0.0035, 0.0452, 0.0304, -0.1935, 0.0403, 0.1061, -0.0559, 487, 118316, 0.0000, 0.0000, 0.0000, 0.0000
3.5660, -0.4511, 0.2746, -9.5223, 0.0016, 0.0073, 0.0035, 0.0461, 0.0304, -0.1929, 0.0406, 0.1075, -0.0557, 488, 118316, 0.0000, 0.0000, 0.0000, 0.0000
3.5860, -0.4511, 0.2746, -9.5223, 0.0016, 0.0073, 0.0035, 0.0468, 0.0303, -0.1927, 0.0409, 0.1081, -0.0556, 489, 118316, 0.0000, 0.0000, 0.0000, 0.0000
3.6060, -0.4511, 0.2746, -9.5223, 0.0016, 0.0073, 0.0035, 0.0476, 0.0302, -0.1922, 0.0413, 0.1090, -0.0559, 490, 118316, 0.0000, 0.0000, 0.0000, 0.0000
3.6260, -0.4511, 0.2746, -9.5223, 0.0016, 0.0073, 0.0035, 0.0484, 0.0301, -0.1919, 0.0411, 0.1094, -0.0557, 491, 118316, 0.0000, 0.0000, 0.0000, 0.0000
3.6460, -0.4511, 0.2746, -9.5223, 0.0016, 0.0073, 0.0035, 0.0490, 0.0300, -0.1913, 0.0415, 0.1088, -0.0556, 492, 118316, 0.0000, 0.0000, 0.0000, 0.0000
3.6660, -0.4511, 0.2746, -9.5223, 0.0016, 0.0073, 0.0035, 0.0497, 0.0299, -0.1908, 0.0416, 0.1088, -0.0560, 493, 118316, 0.0000, 0.0000, 0.0000, 0.0000
3.6860, -0.4511, 0.2746, -9.5223, 0.0016, 0.0073, 0.0035, 0.0504, 0.0298, -0.1904, 0.0418, 0.1093, -0.0559, 494, 118316, 0.0000, 0.0000, 0.0000, 0.0000
3.7060, -0.4511, 0.2746, -9.5223, 0.0016, 0.0073, 0.0035, 0.0510, 0.0298, -0.1898, 0.0417, 0.1101, -0.0550, 495, 118316, 0.0000, 0.0000, 0.0000, 0.0000
3.7260, -0.4511, 0.2746, -9.5223, 0.0016, 0.0073, 0.0035, 0.0515, 0.0296, -0.1894, 0.0420, 0.1113, -0.0540, 496, 118316, 0.0000, 0.0000, 0.0000, 0.0000
3.7460, -0.4511, 0.2746, -9.5223, 0.0016, 0.0073, 0.0035, 0.0521, 0.0296, -0.1889, 0.0420, 0.1117, -0.0536, 497, 118316, 0.0000, 0.0000, 0.0000, 0.0000
3.7660, -0.4511, 0.2746, -9.5223, 0.0016, 0.0073, 0.0035, 0.0528, 0.0293, -0.1885, 0.0421, 0.1114, -0.0527, 498, 118316, 0.0000, 0.0000, 0.0000, 0.0000
3.7860, -0.4511, 0.2746, -9.5223, 0.0016, 0.0073, 0.0035, 0.0534, 0.0292, -0.1881, 0.0420, 0.1114, -0.0520, 499, 118316, 0.0000, 0.0000, 0.0000, 0.0000
3.8060, -0.4511, 0.2746, -9.5223, 0.0016, 0.0073, 0.0035, 0.0539, 0.0291, -0.1876, 0.0420, 0.1111, -0.0515, 500, 118316, 0.0000, 0.0000, 0.0000, 0.0000
3.8260, -0.4511, 0.2746, -9.5223, 0.0016, 0.0073, 0.0035, 0.0544, 0.0289, -0.1874, 0.0422, 0.1112, -0.0515, 501, 118316, 0.0000, 0.0000, 0.0000, 0.0000
3.8460, -0.4511, 0.2746, -9.5223, 0.0016, 0.0073, 0.0035, 0.0548, 0.0289, -0.1872, 0.0422, 0.1112, -0.0514, 502, 118316, 0.0000, 0.0000, 0.0000, 0.0000
3.8660, -0.4511, 0.2746, -9.5223, 0.0016, 0.0073, 0.0035, 0.0554, 0.0287, -0.1872, 0.0423, 0.1109, -0.0509, 503, 118316, 0.0000, 0.0000, 0.0000, 0.0000
3.8860, -0.4511, 0.2746, -9.5223, 0.0016, 0.0073, 0.0035, 0.0558, 0.0288, -0.1871, 0.0425, 0.1108, -0.0502, 504, 118316, 0.0000, 0.0000, 0.0000, 0.0000
3.9060, -0.4511, 0.2746, -9.5223, 0.0016, 0.0073, 0.0035, 0.0562, 0.0287, -0.1871, 0.0424, 0.1113, -0.0494, 505, 118316, 0.0000, 0.0000, 0.0000, 0.0000
3.9260, -0.4511, 0.2746, -9.5223, 0.0016, 0.0073, 0.0035, 0.0566, 0.0285, -0.1872, 0.0425, 0.1113, -0.0491, 506, 118316, 0.0000, 0.0000, 0.0000, 0.0000
3.9460, -0.4511, 0.2746, -9.5223, 0.0016, 0.0073, 0.0035, 0.0569, 0.0286, -0.1872, 0.0425, 0.1114, -0.0491, 507, 118316, 0.0000, 0.0000, 0.0000, 0.0000
3.9660, -0.4511, 0.2746, -9.5223, 0.0016, 0.0073, 0.0035, 0.0574, 0.0286, -0.1873, 0.0424, 0.1111, -0.0488, 508, 118316, 0.0000, 0.0000, 0.0000, 0.0000
3.9860, -0.4511, 0.2746, -9.5223, 0.0016, 0.0073, 0.0035, 0.0577, 0.0286, -0.1871, 0.0424, 0.1115, -0.0484, 509, 118316, 0.0000, 0.0000, 0.0000, 0.0000
4.0060, -0.4511, 0.2746, -9.5223, 0.0016, 0.0073, 0.0035, 0.0580, 0.0286, -0.1871, 0.0423, 0.1117, -0.0476, 510, 118316, 0.0000, 0.0000, 0.0000, 0.0000
4.0260, -0.4511, 0.2746, -9.5223, 0.0016, 0.0073, 0.0035, 0.0583, 0.0286, -0.1869, 0.0427, 0.1121, -0.0466, 511, 118316, 0.0000, 0.0000, 0.0000, 0.0000
4.0460, -0.4511, 0.2746, -9.5223, 0.0016, 0.0073, 0.0035, 0.0586, 0.0288, -0.1867, 0.0424, 0.1122, -0.0464, 512, 118316, 0.0000, 0.0000, 0.0000, 0.0000
4.0660, -0.4511, 0.2746, -9.5223, 0.0016, 0.0073, 0.0035, 0.0588, 0.0288, -0.1868, 0.0428, 0.1129, -0.0465, 513, 118316, 0.0000, 0.0000, 0.0000, 0.0000
4.0860, -0.4511, 0.2746, -9.5223, 0.0016, 0.0073, 0.0035, 0.0590, 0.0289, -0.1864, 0.0431, 0.1128, -0.0468, 514, 118316, 0.0000, 0.0000, 0.0000, 0.0000
4.1060, -0.4511, 0.2746, -9.5223, 0.0016, 0.0073, 0.0035, 0.0592, 0.0290, -0.1865, 0.0431, 0.1132, -0.0469, 515, 118316, 0.0000, 0.0000, 0.0000, 0.0000
4.1260, -0.4511, 0.2746, -9.5223, 0.0016, 0.0073, 0.0035, 0.0593, 0.0291, -0.1864, 0.0434, 0.1132, -0.0479, 516, 118316, 0.0000, 0.0000, 0.0000, 0.0000
4.1460, -0.4511, 0.2746, -9.5223, 0.0016, 0.0073, 0.0035, 0.0595, 0.0293, -0.1865, 0.0436, 0.1131, -0.0481, 517, 118316, 0.0000, 0.0000, 0.0000, 0.0000
4.1660, -0.4511, 0.2746, -9.5223, 0.0016, 0.0073, 0.0035, 0.0597, 0.0295, -0.1866, 0.0440, 0.1133, -0.0492, 518, 118316, 0.0000, 0.0000, 0.0000, 0.0000
4.1890, -0.4511, 0.2746, -9.5223, 0.0016, 0.0073, 0.0035, 0.0597, 0.0298, -0.1866, 0.0441, 0.1126, -0.0494, 519, 118316, 0.0000, 0.0000, 0.0000, 0.0000
4.2090, -0.4511, 0.2746, -9.5223, 0.0016, 0.0073, 0.0035, 0.0598, 0.0299, -0.1870, 0.0441, 0.1116, -0.0497, 520, 118316, 0.0000, 0.0000, 0.0000, 0.0000
4.2290, -0.4511, 0.2746, -9.5223, 0.0016, 0.0073, 0.0035, 0.0597, 0.0301, -0.1872, 0.0442, 0.1109, -0.0507, 521, 118316, 0.0000, 0.0000, 0.0000, 0.0000
4.2490, -0.4511, 0.2746, -9.5223, 0.0016, 0.0073, 0.0035, 0.0599, 0.0304, -0.1876, 0.0443, 0.1101, -0.0503, 522, 118316, 0.0000, 0.0000, 0.0000, 0.0000
4.2690, -0.4511, 0.2746, -9.5223, 0.0016, 0.0073, 0.0035, 0.0599, 0.0306, -0.1878, 0.0440, 0.1093, -0.0505, 523, 118316, 0.0000, 0.0000, 0.0000, 0.0000
4.2890, -0.4511, 0.2746, -9.5223, 0.0016, 0.0073, 0.0035, 0.0599, 0.0308, -0.1882, 0.0440, 0.1086, -0.0501, 524, 118316, 0.0000, 0.0000, 0.0000, 0.0000
4.3090, -0.4511, 0.2746, -9.5223, 0.0016, 0.0073, 0.0035, 0.0600, 0.0310, -0.1884, 0.0439, 0.1074, -0.0500, 525, 118316, 0.0000, 0.0000, 0.0000, 0.0000
4.3290, -0.4511, 0.2746, -9.5223, 0.0016, 0.0073, 0.0035, 0.0598, 0.0314, -0.1886, 0.0436, 0.1069, -0.0502, 526, 118316, 0.0000, 0.0000, 0.0000, 0.0000
4.3490, -0.4511, 0.2746, -9.5223, 0.0016, 0.0073, 0.0035, 0.0599, 0.0317, -0.1888, 0.0436, 0.1074, -0.0496, 527, 118316, 0.0000, 0.0000, 0.0000, 0.0000
4.3690, -0.4511, 0.2746, -9.5223, 0.0016, 0.0073, 0.0035, 0.0597, 0.0320, -0.1887, 0.0437, 0.1075, -0.0499, 528, 118316, 0.0000, 0.0000, 0.0000, 0.0000
4.3890, -0.4511, 0.2746, -9.5223, 0.0016, 0.0073, 0.0035, 0.0598, 0.0324, -0.1888, 0.0436, 0.1077, -0.0495, 529, 118316, 0.0000, 0.0000, 0.0000, 0.0000
4.4090, -0.4511, 0.2746, -9.5223, 0.0016, 0.0073, 0.0035, 0.0598, 0.0327, -0.1887, 0.0437, 0.1077, -0.0497, 530, 118316, 0.0000, 0.0000, 0.0000, 0.0000
4.4290, -0.4511, 0.2746, -9.5223, 0.0016, 0.0073, 0.0035, 0.0598, 0.0332, -0.1885, 0.0437, 0.1074, -0.0496, 531, 118316, 0.0000, 0.0000, 0.0000, 0.0000
4.4490, -0.4511, 0.2746, -9.5223, 0.0016, 0.0073, 0.0035, 0.0597, 0.0336, -0.1885, 0.0438, 0.1074, -0.0489, 532, 118316, 0.0000, 0.0000, 0.0000, 0.0000
4.4690, -0.4511, 0.2746, -9.5223, 0.0016, 0.0073, 0.0035, 0.0596, 0.0340, -0.1882, 0.0438, 0.1073, -0.0496, 533, 118316, 0.0000, 0.0000, 0.0000, 0.0000
4.4890, -0.4511, 0.2746, -9.5223, 0.0016, 0.0073, 0.0035, 0.0596, 0.0345, -0.1881, 0.0439, 0.1071, -0.0489, 534, 118316, 0.0000, 0.0000, 0.0000, 0.0000
4.5090, -0.4511, 0.2746, -9.5223, 0.0016, 0.0073, 0.0035, 0.0594, 0.0349, -0.1878, 0.0439, 0.1079, -0.0489, 535, 118316, 0.0000, 0.0000, 0.0000, 0.0000
4.5290, -0.4511, 0.2746, -9.5223, 0.0016, 0.0073, 0.0035, 0.0592, 0.0355, -0.1876, 0.0439, 0.1081, -0.0496, 536, 118316, 0.0000, 0.0000, 0.0000, 0.0000
4.5490, -0.4511, 0.2746, -9.5223, 0.0016, 0.0073, 0.0035, 0.0592, 0.0360, -0.1874, 0.0437, 0.1085, -0.0489, 537, 118316, 0.0000, 0.0000, 0.0000, 0.0000
4.5690, -0.4511, 0.2746, -9.5223, 0.0016, 0.0073, 0.0035, 0.0589, 0.0364, -0.1871, 0.0436, 0.1090, -0.0494, 538, 118316, 0.0000, 0.0000, 0.0000, 0.0000
4.5890, -0.4511, 0.2746, -9.5223, 0.0016, 0.0073, 0.0035, 0.0588, 0.0370, -0.1870, 0.0436, 0.1088, -0.0494, 539, 118316, 0.0000, 0.0000, 0.0000, 0.0000
4.6090, -0.4511, 0.2746, -9.5223, 0.0016, 0.0073, 0.0035, 0.0587, 0.0373, -0.1869, 0.0437, 0.1082, -0.0505, 540, 118316, 0.0000, 0.0000, 0.0000, 0.0000
4.6290, -0.4511, 0.2746, -9.5223, 0.0016, 0.0073, 0.0035, 0.0586, 0.0379, -0.1869, 0.0435, 0.1078, -0.0508, 541, 118316, 0.0000, 0.0000, 0.0000, 0.0000
4.6490, -0.4511, 0.2746, -9.5223, 0.0016, 0.0073, 0.0035, 0.0585, 0.0384, -0.1869, 0.0435, 0.1074, -0.0521, 542, 118316, 0.0000, 0.0000, 0.0000, 0.0000
4.6690, -0.4511, 0.2746, -9.5223, 0.0016, 0.0073, 0.0035, 0.0583, 0.0389, -0.1869, 0.0434, 0.1070, -0.0527, 543, 118316, 0.0000, 0.0000, 0.0000, 0.0000
4.6890, -0.4511, 0.2746, -9.5223, 0.0016, 0.0073, 0.0035, 0.0582, 0.0395, -0.1870, 0.0435, 0.1074, -0.0522, 544, 118316, 0.0000, 0.0000, 0.0000, 0.0000
4.7090, -0.4511, 0.2746, -9.5223, 0.0016, 0.0073, 0.0035, 0.0579, 0.0400, -0.1868, 0.0435, 0.1075, -0.0525, 545, 118316, 0.0000, 0.0000, 0.0000, 0.0000
4.7290, -0.4511, 0.2746, -9.5223, 0.0016, 0.0073, 0.0035, 0.0578, 0.0405, -0.1869, 0.0434, 0.1074, -0.0536, 546, 118316, 0.0000, 0.0000, 0.0000, 0.0000
4.7490, -0.4511, 0.2746, -9.5223, 0.0016, 0.0073, 0.0035, 0.0577, 0.0411, -0.1867, 0.0434, 0.1074, -0.0537, 547, 118316, 0.0000, 0.0000, 0.0000, 0.0000
4.7690, -0.4511, 0.2746, -9.5223, 0.0016, 0.0073, 0.0035, 0.0575, 0.0416, -0.1866, 0.0434, 0.1066, -0.0541, 548, 118316, 0.0000, 0.0000, 0.0000, 0.0000
4.7890, -0.4511, 0.2746, -9.5223, 0.0016, 0.0073, 0.0035, 0.0574, 0.0422, -0.1864, 0.0428, 0.1056, -0.0546, 549, 118316, 0.0000, 0.0000, 0.0000, 0.0000
4.8090, -0.4511, 0.2746, -9.5223, 0.0016, 0.0073, 0.0035, 0.0571, 0.0427, -0.1862, 0.0429, 0.1046, -0.0550, 550, 118316, 0.0000, 0.0000, 0.0000, 0.0000
4.8290, -0.4511, 0.2746, -9.5223, 0.0016, 0.0073, 0.0035, 0.0571, 0.0433, -0.1860, 0.0424, 0.1037, -0.0547, 551, 118316, 0.0000, 0.0000, 0.0000, 0.0000
4.8490, -0.4511, 0.2746, -9.5223, 0.0016, 0.0073, 0.0035, 0.0569, 0.0439, -0.1857, 0.0422, 0.1030, -0.0547, 552, 118316, 0.0000, 0.0000, 0.0000, 0.0000
4.8690, -0.4511, 0.2746, -9.5223, 0.0016, 0.0073, 0.0035, 0.0568, 0.0445, -0.1855, 0.0420, 0.1023, -0.0546, 553, 118316, 0.0000, 0.0000, 0.0000, 0.0000
4.8890, -0.4511, 0.2746, -9.5223, 0.0016, 0.0073, 0.0035, 0.0566, 0.0451, -0.1853, 0.0417, 0.1019, -0.0550, 554, 118316, 0.0000, 0.0000, 0.0000, 0.0000
4.9090, -0.4511, 0.2746, -9.5223, 0.0016, 0.0073, 0.0035, 0.0565, 0.0459, -0.1851, 0.0421, 0.1022, -0.0553, 555, 118316, 0.0000, 0.0000, 0.0000, 0.0000
4.9290, -0.4511, 0.2746, -9.5223, 0.0016, 0.0073, 0.0035, 0.0564, 0.0464, -0.1848, 0.0419, 0.1017, -0.0552, 556, 118316, 0.0000, 0.0000, 0.0000, 0.0000
4.9490, -0.4511, 0.2746, -9.5223, 0.0016, 0.0073, 0.0035, 0.0563, 0.0470, -0.1845, 0.0422, 0.1010, -0.0557, 557, 118316, 0.0000, 0.0000, 0.0000, 0.0000
4.9690, -0.4511, 0.2746, -9.5223, 0.0016, 0.0073, 0.0035, 0.0564, 0.0476, -0.1842, 0.0423, 0.1011, -0.0558, 558, 118316, 0.0000, 0.0000, 0.0000, 0.0000
4.9890, -0.4511, 0.2746, -9.5223, 0.0016, 0.0073, 0.0035, 0.0563, 0.0483, -0.1838, 0.0422, 0.1014, -0.0556, 559, 118316, 0.0000, 0.0000, 0.0000, 0.0000
5.0090, -0.4511, 0.2746, -9.5223, 0.0016, 0.0073, 0.0035, 0.0563, 0.0489, -0.1835, 0.0425, 0.1018, -0.0565, 560, 118316, 0.0000, 0.0000, 0.0000, 0.0000
5.0290, -0.4511, 0.2746, -9.5223, 0.0016, 0.0073, 0.0035, 0.0563, 0.0494, -0.1831, 0.0425, 0.1023, -0.0565, 561, 118316, 0.0000, 0.0000, -0.0030, 0.0000
5.0490, -0.4511, 0.2746, -9.5223, 0.0016, 0.0073, 0.0035, 0.0562, 0.0500, -0.1828, 0.0423, 0.1020, -0.0564, 562, 118316, 0.0000, 0.0000, -0.0097, 0.0000
5.0690, -0.4511, 0.2746, -9.5223, 0.0016, 0.0073, 0.0035, 0.0563, 0.0506, -0.1825, 0.0424, 0.1019, -0.0570, 563, 118316, 0.0000, 0.0000, -0.0163, 0.0000
5.0890, -0.4511, 0.2746, -9.5223, 0.0016, 0.0073, 0.0035, 0.0563, 0.0511, -0.1820, 0.0423, 0.1018, -0.0574, 564, 118316, 0.0000, 0.0000, -0.0230, 0.0000
5.1090, -0.4511, 0.2746, -9.5223, 0.0016, 0.0073, 0.0035, 0.0565, 0.0518, -0.1818, 0.0429, 0.1018, -0.0577, 565, 118316, 0.0000, 0.0000, -0.0297, 0.0000
5.1290, -0.4511, 0.2746, -9.5223, 0.0016, 0.0073, 0.0035, 0.0566, 0.0524, -0.1816, 0.0430, 0.1014, -0.0582, 566, 118316, 0.0000, 0.0000, -0.0363, 0.0000
5.1490, -0.4511, 0.2746, -9.5223, 0.0016, 0.0073, 0.0035, 0.0566, 0.0530, -0.1815, 0.0433, 0.1015, -0.0584, 567, 118316, 0.0000, 0.0000, -0.0430, 0.0000
5.1690, -0.4511, 0.2746, -9.5223, 0.0016, 0.0073, 0.0035, 0.0569, 0.0535, -0.1815, 0.0437, 0.1011, -0.0585, 568, 118316, 0.0000, 0.0000, -0.0497, 0.0000
5.1890, -0.4511, 0.2746, -9.5223, 0.0016, 0.0073, 0.0035, 0.0570, 0.0542, -0.1815, 0.0435, 0.1017, -0.0580, 569, 118316, 0.0000, 0.0000, -0.0563, 0.0000
5.2090, -0.4511, 0.2746, -9.5223, 0.0016, 0.0073, 0.0035, 0.0571, 0.0547, -0.1816, 0.0436, 0.1027, -0.0575, 570, 118316, 0.0000, 0.0000, -0.0630, 0.0000
5.2290, -0.4511, 0.2746, -9.5223, 0.0016, 0.0073, 0.0035, 0.0572, 0.0551, -0.1817, 0.0435, 0.1039, -0.0565, 571, 118316, 0.0000, 0.0000, -0.0697, 0.0000
5.2490, -0.4511, 0.2746, -9.5223, 0.0016, 0.0073, 0.0035, 0.0574, 0.0557, -0.1819, 0.0436, 0.1049, -0.0560, 572, 118316, 0.0000, 0.0000, -0.0763, 0.0000
5.2690, -0.4511, 0.2746, -9.5223, 0.0016, 0.0073, 0.0035, 0.0577, 0.0562, -0.1820, 0.0436, 0.1063, -0.0549, 573, 118316, 0.0000, 0.0000, -0.0830, 0.0000
5.2890, -0.4511, 0.2746, -9.5223, 0.0016, 0.0073, 0.0035, 0.0578, 0.0567, -0.1823, 0.0438, 0.1072, -0.0552, 574, 118316, 0.0000, 0.0000, -0.0897, 0.0000
5.3090, -0.4511, 0.2746, -9.5223, 0.0016, 0.0073, 0.0035, 0.0579, 0.0573, -0.1828, 0.0438, 0.1075, -0.0553, 575, 118316, 0.0000, 0.0000, -0.0963, 0.0000
5.3290, -0.4511, 0.2746, -9.5223, 0.0016, 0.0073, 0.0035, 0.0581, 0.0577, -0.1830, 0.0436, 0.1071, -0.0549, 576, 118316, 0.0000, 0.0000, -0.1030, 0.0000
5.3500, -0.4511, 0.2746, -9.5223, 0.0016, 0.0073, 0.0035, 0.0584, 0.0582, -0.1838, 0.0435, 0.1073, -0.0551, 577, 118316, 0.0000, 0.0000, -0.1097, 0.0000
5.3700, -0.4511, 0.2746, -9.5223, 0.0016, 0.0073, 0.0035, 0.0585, 0.0587, -0.1843, 0.0438, 0.1070, -0.0564, 578, 118316, 0.0000, 0.0000, -0.1167, 0.0000
5.3900, -0.4511, 0.2746, -9.5223, 0.0016, 0.0073, 0.0035, 0.0588, 0.0591, -0.1850, 0.0434, 0.1073, -0.0573, 579, 118316, 0.0000, 0.0000, -0.1233, 0.0000
5.4100, -0.4511, 0.2746, -9.5223, 0.0016, 0.0073, 0.0035, 0.0590, 0.0595, -0.1859, 0.0436, 0.1079, -0.0588, 580, 118316, 0.0000, 0.0000, -0.1300, 0.0000
5.4300, -0.4511, 0.2746, -9.5223, 0.0016, 0.0073, 0.0035, 0.0592, 0.0599, -0.1866, 0.0441, 0.1083, -0.0597, 581, 118316, 0.0000, 0.0000, -0.1367, 0.0000
5.4500, -0.4511, 0.2746, -9.5223, 0.0016, 0.0073, 0.0035, 0.0595, 0.0604, -0.1876, 0.0440, 0.1090, -0.0603, 582, 118316, 0.0000, 0.0000, -0.1433, 0.0000
5.4700, -0.4511, 0.2746, -9.5223, 0.0016, 0.0073, 0.0035, 0.0596, 0.0606, -0.1886, 0.0444, 0.1095, -0.0617, 583, 118316, 0.0000, 0.0000, -0.1500, 0.0000
5.4900, -0.4511, 0.2746, -9.5223, 0.0016, 0.0073, 0.0035, 0.0599, 0.0610, -0.1898, 0.0443, 0.1099, -0.0630, 584, 118316, 0.0000, 0.0000, -0.1567, 0.0000
5.5100, -0.4511, 0.2746, -9.5223, 0.0016, 0.0073, 0.0035, 0.0600, 0.0613, -0.1910, 0.0439, 0.1102, -0.0625, 585, 118316, 0.0000, 0.0000, -0.1633, 0.0000
5.5300, -0.4511, 0.2746, -9.5223, 0.0016, 0.0073, 0.0035, 0.0602, 0.0615, -0.1924, 0.0441, 0.1098, -0.0631, 586, 118316, 0.0000, 0.0000, -0.1700, 0.0000
5.5500, -0.4511, 0.2746, -9.5223, 0.0016, 0.0073, 0.0035, 0.0604, 0.0619, -0.1940, 0.0440, 0.1101, -0.0626, 587, 118316, 0.0000, 0.0000, -0.1767, 0.0000
5.5700, -0.4511, 0.2746, -9.5223, 0.0016, 0.0073, 0.0035, 0.0604, 0.0621, -0.1955, 0.0439, 0.1104, -0.0626, 588, 118316, 0.0000, 0.0000, -0.1833, 0.0000
5.5900, -0.4511, 0.2746, -9.5223, 0.0016, 0.0073, 0.0035, 0.0606, 0.0622, -0.1974, 0.0440, 0.1112, -0.0618, 589, 118316, 0.0000, 0.0000, -0.1900, 0.0000
5.6100, -0.4511, 0.2746, -9.5223, 0.0016, 0.0073, 0.0035, 0.0606, 0.0625, -0.1991, 0.0441, 0.1119, -0.0611, 590, 118316, 0.0000, 0.0000, -0.1967, 0.0000
5.6300, -0.4511, 0.2746, -9.5223, 0.0016, 0.0073, 0.0035, 0.0607, 0.0626, -0.2009, 0.0440, 0.1127, -0.0608, 591, 118316, 0.0000, 0.0000, -0.2033, 0.0000
5.6500, -0.4511, 0.2746, -9.5223, 0.0016, 0.0073, 0.0035, 0.0607, 0.0627, -0.2027, 0.0441, 0.1135, -0.0611, 592, 118316, 0.0000, 0.0000, -0.2100, 0.0000
5.6700, -0.4511, 0.2746, -9.5223, 0.0016, 0.0073, 0.0035, 0.0606, 0.0628, -0.2047, 0.0445, 0.1145, -0.0616, 593, 118316, 0.0000, 0.0000, -0.2167, 0.0000
5.6900, -0.4511, 0.2746, -9.5223, 0.0016, 0.0073, 0.0035, 0.0606, 0.0628, -0.2067, 0.0448, 0.1147, -0.0618, 594, 118316, 0.0000, 0.0000, -0.2233, 0.0000
5.7100, -0.4511, 0.2746, -9.5223, 0.0016, 0.0073, 0.0035, 0.0603, 0.0627, -0.2087, 0.0446, 0.1154, -0.0620, 595, 118316, 0.0000, 0.0000, -0.2300, 0.0000
5.7300, -0.4511, 0.2746, -9.5223, 0.0016, 0.0073, 0.0035, 0.0601, 0.0627, -0.2108, 0.0450, 0.1156, -0.0624, 596, 118316, 0.0000, 0.0000, -0.2367, 0.0000
5.7500, -0.4511, 0.2746, -9.5223, 0.0016, 0.0073, 0.0035, 0.0600, 0.0625, -0.2128, 0.0453, 0.1157, -0.0620, 597, 118316, 0.0000, 0.0000, -0.2433, 0.0000
5.7700, -0.4511, 0.2746, -9.5223, 0.0016, 0.0073, 0.0035, 0.0597, 0.0624, -0.2150, 0.0452, 0.1158, -0.0621, 598, 118316, 0.0000, 0.0000, -0.2500, 0.0000
5.7900, -0.4511, 0.2746, -9.5223, 0.0016, 0.0073, 0.0035, 0.0596, 0.0621, -0.2172, 0.0455, 0.1157, -0.0626, 599, 118316, 0.0000, 0.0000, -0.2567, 0.0000
5.8100, -0.4511, 0.2746, -9.5223, 0.0016, 0.0073, 0.0035, 0.0592, 0.0619, -0.2192, 0.0453, 0.1150, -0.0628, 600, 118316, 0.0000, 0.0000, -0.2633, 0.0000
5.8300, -0.4511, 0.2746, -9.5223, 0.0016, 0.0073, 0.0035, 0.0590, 0.0616, -0.2214, 0.0460, 0.1146, -0.0628, 601, 118316, 0.0000, 0.0000, -0.2700, 0.0000
5.8500, -0.4511, 0.2746, -9.5223, 0.0016, 0.0073, 0.0035, 0.0587, 0.0613, -0.2235, 0.0458, 0.1138, -0.0628, 602, 118316, 0.0000, 0.0000, -0.2767, 0.0000
5.8700, -0.4511, 0.2746, -9.5223, 0.0016, 0.0073, 0.0035, 0.0583, 0.0610, -0.2257, 0.0462, 0.1136, -0.0626, 603, 118316, 0.0000, 0.0000, -0.2833, 0.0000
5.8900, -0.4511, 0.2746, -9.5223, 0.0016, 0.0073, 0.0035, 0.0577, 0.0604, -0.2279, 0.0466, 0.1134, -0.0629, 604, 118316, 0.0000, 0.0000, -0.2900, 0.0000
5.9100, -0.4511, 0.2746, -9.5223, 0.0016, 0.0073, 0.0035, 0.0572, 0.0600, -0.2301, 0.0465, 0.1134, -0.0624, 605, 118316, 0.0000, 0.0000, -0.2967, 0.0000
5.9300, -0.4511, 0.2746, -9.5223, 0.0016, 0.0073, 0.0035, 0.0566, 0.0594, -0.2327, 0.0469, 0.1125, -0.0619, 606, 118316, 0.0000, 0.0000, -0.3033, 0.0000
5.9500, -0.4511, 0.2746, -9.5223, 0.0016, 0.0073, 0.0035, 0.0559, 0.0589, -0.2349, 0.0471, 0.1122, -0.0606, 607, 118316, 0.0000, 0.0000, -0.3100, 0.0000
5.9700, -0.4511, 0.2746, -9.5223, 0.0016, 0.0073, 0.0035, 0.0554, 0.0582, -0.2375, 0.0471, 0.1115, -0.0611, 608, 118316, 0.0000, 0.0000, -0.3167, 0.0000
5.9900, -0.4511, 0.2746, -9.5223, 0.0016, 0.0073, 0.0035, 0.0548, 0.0574, -0.2403, 0.0469, 0.1109, -0.0614, 609, 118316, 0.0000, 0.0000, -0.3233, 0.0000
6.0100, -0.4511, 0.2746, -9.5223, 0.0016, 0.0073, 0.0035, 0.0541, 0.0566, -0.2431, 0.0470, 0.1099, -0.0610, 610, 118316, 0.0000, 0.0000, -0.3300, 0.0000
6.0300, -0.4511, 0.2746, -9.5223, 0.0016, 0.0073, 0.0035, 0.0534, 0.0558, -0.2462, 0.0474, 0.1095, -0.0610, 611, 118316, 0.0000, 0.0000, -0.3367, 0.0000
6.0500, -0.4511, 0.2746, -9.5223, 0.0016, 0.0073, 0.0035, 0.0526, 0.0550, -0.2493, 0.0474, 0.1091, -0.0598, 612, 118316, 0.0000, 0.0000, -0.3433, 0.0000
6.0700, -0.4511, 0.2746, -9.5223, 0.0016, 0.0073, 0.0035, 0.0519, 0.0541, -0.2526, 0.0473, 0.1086, -0.0591, 613, 118316, 0.0000, 0.0000, -0.3500, 0.0000
6.0900, -0.4511, 0.2746, -9.5223, 0.0016, 0.0073, 0.0035, 0.0509, 0.0533, -0.2561, 0.0474, 0.1083, -0.0579, 614, 118316, 0.0000, 0.0000, -0.3567, 0.0000
6.1100, -0.4511, 0.2746, -9.5223, 0.0016, 0.0073, 0.0035, 0.0502, 0.0524, -0.2595, 0.0472, 0.1078, -0.0571, 615, 118316, 0.0000, 0.0000, -0.3633, 0.0000
6.1300, -0.4511, 0.2746, -9.5223, 0.0016, 0.0073, 0.0035, 0.0493, 0.0514, -0.2631, 0.0472, 0.1076, -0.0559, 616, 118316, 0.0000, 0.0000, -0.3700, 0.0000
6.1500, -0.4511, 0.2746, -9.5223, 0.0016, 0.0073, 0.0035, 0.0485, 0.0504, -0.2668, 0.0472, 0.1064, -0.0548, 617, 118316, 0.0000, 0.0000, -0.3767, 0.0000
6.1700, -0.4511, 0.2746, -9.5223, 0.0016, 0.0073, 0.0035, 0.0477, 0.0495, -0.2701, 0.0472, 0.1049, -0.0522, 618, 118316, 0.0000, 0.0000, -0.3833, 0.0000
6.1920, -0.4511, 0.2746, -9.5223, 0.0016, 0.0073, 0.0035, 0.0469, 0.0484, -0.2736, 0.0470, 0.1034, -0.0496, 619, 118316, 0.0000, 0.0000, -0.3900, 0.0000
6.2020, -0.4511, 0.2746, -9.5223, 0.0016, 0.0073, 0.0035, 0.0460, 0.0475, -0.2770, 0.0468, 0.1025, -0.0480, 620, 118316, 0.0000, 0.0000, -0.3973, 0.0000
6.2220, -0.4511, 0.2746, -9.5223, 0.0016, 0.0073, 0.0035, 0.0452, 0.0466, -0.2804, 0.0469, 0.1024, -0.0469, 621, 118316, 0.0000, 0.0000, -0.4007, 0.0000
6.2420, -0.4511, 0.2746, -9.5223, 0.0016, 0.0073, 0.0035, 0.0442, 0.0454, -0.2840, 0.0462, 0.1023, -0.0463, 622, 118316, 0.0000, 0.0000, -0.4073, 0.0000
6.2620, -0.4511, 0.2746, -9.5223, 0.0016, 0.0073, 0.0035, 0.0434, 0.0444, -0.2876, 0.0463, 0.1017, -0.0457, 623, 118316, 0.0000, 0.0000, -0.4140, 0.0000
6.2820, -0.4511, 0.2746, -9.5223, 0.0016, 0.0073, 0.0035, 0.0424, 0.0434, -0.2911, 0.0456, 0.1013, -0.0453, 624, 118316, 0.0000, 0.0000, -0.4207, 0.0000
6.3120, -0.4511, 0.2746, -9.5223, 0.0016, 0.0073, 0.0035, 0.0414, 0.0424, -0.2951, 0.0455, 0.1008, -0.0436, 625, 118316, 0.0000, 0.0000, -0.4273, 0.0000
6.3320, -0.4511, 0.2746, -9.5223, 0.0016, 0.0073, 0.0035, 0.0406, 0.0415, -0.2986, 0.0455, 0.1003, -0.0435, 626, 118316, 0.0000, 0.0000, -0.4373, 0.0000
6.3420, -0.4511, 0.2746, -9.5223, 0.0016, 0.0073, 0.0035, 0.0398, 0.0406, -0.3026, 0.0452, 0.1000, -0.0421, 627, 118316, 0.0000, 0.0000, -0.4440, 0.0000
6.3620, -0.4511, 0.2746, -9.5223, 0.0016, 0.0073, 0.0035, 0.0387, 0.0396, -0.3064, 0.0449, 0.0991, -0.0406, 628, 118316, 0.0000, 0.0000, -0.4473, 0.0000
6.3920, -0.4511, 0.2746, -9.5223, 0.0016, 0.0073, 0.0035, 0.0379, 0.0388, -0.3103, 0.0447, 0.0984, -0.0399, 629, 118316, 0.0000, 0.0000, -0.4540, 0.0000
6.4120, -0.4511, 0.2746, -9.5223, 0.0016, 0.0073, 0.0035, 0.0370, 0.0380, -0.3144, 0.0445, 0.0980, -0.0388, 630, 118316, 0.0000, 0.0000, -0.4640, 0.0000
6.4220, -0.4511, 0.2746, -9.5223, 0.0016, 0.0073, 0.0035, 0.0361, 0.0373, -0.3182, 0.0440, 0.0976, -0.0384, 631, 118316, 0.0000, 0.0000, -0.4707, 0.0000
6.4520, -0.4511, 0.2746, -9.5223, 0.0016, 0.0073, 0.0035, 0.0352, 0.0364, -0.3223, 0.0438, 0.0968, -0.0374, 632, 118316, 0.0000, 0.0000, -0.4740, 0.0000
6.4720, -0.4511, 0.2746, -9.5223, 0.0016, 0.0073, 0.0035, 0.0345, 0.0358, -0.3263, 0.0437, 0.0955, -0.0371, 633, 118316, 0.0000, 0.0000, -0.4840, 0.0000
6.4820, -0.4511, 0.2746, -9.5223, 0.0016, 0.0073, 0.0035, 0.0338, 0.0353, -0.3303, 0.0430, 0.0939, -0.0358, 634, 118316, 0.0000, 0.0000, -0.4907, 0.0000
6.5020, -0.4511, 0.2746, -9.5223, 0.0016, 0.0073, 0.0035, 0.0331, 0.0348, -0.3344, 0.0429, 0.0934, -0.0350, 635, 118316, 0.0000, 0.0000, -0.4940, 0.0000
6.5220, -0.4511, 0.2746, -9.5223, 0.0016, 0.0073, 0.0035, 0.0323, 0.0342, -0.3383, 0.0428, 0.0929, -0.0346, 636, 118316, 0.0000, 0.0000, -0.5007, 0.0000
6.5520, -0.4511, 0.2746, -9.5223, 0.0016, 0.0073, 0.0035, 0.0316, 0.0337, -0.3426, 0.0424, 0.0921, -0.0344, 637, 118316, 0.0000, 0.0000, -0.5073, 0.0000
6.5720, -0.4511, 0.2746, -9.5223, 0.0016, 0.0073, 0.0035, 0.0310, 0.0332, -0.3465, 0.0421, 0.0911, -0.0346, 638, 118316, 0.0000, 0.0000, -0.5173, 0.0000
6.5920, -0.4511, 0.2746, -9.5223, 0.0016, 0.0073, 0.0035, 0.0304, 0.0328, -0.3507, 0.0417, 0.0905, -0.0352, 639, 118316, 0.0000, 0.0000, -0.5240, 0.0000
6.6020, -0.4511, 0.2746, -9.5223, 0.0016, 0.0073, 0.0035, 0.0298, 0.0325, -0.3547, 0.0415, 0.0907, -0.0358, 640, 118316, 0.0000, 0.0000, -0.5307, 0.0000
6.6220, -0.4511, 0.2746, -9.5223, 0.0016, 0.0073, 0.0035, 0.0292, 0.0322, -0.3586, 0.0412, 0.0904, -0.0359, 641, 118316, 0.0000, 0.0000, -0.5340, 0.0000
6.6420, -0.4511, 0.2746, -9.5223, 0.0016, 0.0073, 0.0035, 0.0287, 0.0319, -0.3626, 0.0412, 0.0909, -0.0361, 642, 118316, 0.0000, 0.0000, -0.5407, 0.0000
6.6720, -0.4511, 0.2746, -9.5223, 0.0016, 0.0073, 0.0035, 0.0282, 0.0319, -0.3665, 0.0408, 0.0913, -0.0356, 643, 118316, 0.0000, 0.0000, -0.5473, 0.0000
6.6920, -0.4511, 0.2746, -9.5223, 0.0016, 0.0073, 0.0035, 0.0278, 0.0317, -0.3704, 0.0407, 0.0915, -0.0358, 644, 118316, 0.0000, 0.0000, -0.5573, 0.0000
6.7120, -0.4511, 0.2746, -9.5223, 0.0016, 0.0073, 0.0035, 0.0273, 0.0316, -0.3744, 0.0406, 0.0918, -0.0368, 645, 118316, 0.0000, 0.0000, -0.5640, 0.0000
6.7320, -0.4511, 0.2746, -9.5223, 0.0016, 0.0073, 0.0035, 0.0271, 0.0317, -0.3783, 0.0400, 0.0913, -0.0366, 646, 118316, 0.0000, 0.0000, -0.5707, 0.0000
6.7520, -0.4511, 0.2746, -9.5223, 0.0016, 0.0073, 0.0035, 0.0267, 0.0316, -0.3824, 0.0395, 0.0913, -0.0370, 647, 118316, 0.0000, 0.0000, -0.5773, 0.0000
6.7720, -0.4511, 0.2746, -9.5223, 0.0016, 0.0073, 0.0035, 0.0263, 0.0317, -0.3863, 0.0394, 0.0914, -0.0372, 648, 118316, 0.0000, 0.0000, -0.5840, 0.0000
6.7920, -0.4511, 0.2746, -9.5223, 0.0016, 0.0073, 0.0035, 0.0262, 0.0318, -0.3905, 0.0392, 0.0919, -0.0377, 649, 118316, 0.0000, 0.0000, -0.5907, 0.0000
6.8120, -0.4511, 0.2746, -9.5223, 0.0016, 0.0073, 0.0035, 0.0258, 0.0319, -0.3943, 0.0392, 0.0922, -0.0389, 650, 118316, 0.0000, 0.0000, -0.5973, 0.0000
6.8320, -0.4511, 0.2746, -9.5223, 0.0016, 0.0073, 0.0035, 0.0257, 0.0322, -0.3986, 0.0388, 0.0926, -0.0391, 651, 118316, 0.0000, 0.0000, -0.6040, 0.0000
6.8520, -0.4511, 0.2746, -9.5223, 0.0016, 0.0073, 0.0035, 0.0254, 0.0323, -0.4026, 0.0387, 0.0932, -0.0403, 652, 118316, 0.0000, 0.0000, -0.6107, 0.0000
6.8720, -0.4511, 0.2746, -9.5223, 0.0016, 0.0073, 0.0035, 0.0253, 0.0326, -0.4066, 0.0385, 0.0933, -0.0400, 653, 118316, 0.0000, 0.0000, -0.6173, 0.0000
6.8920, -0.4511, 0.2746, -9.5223, 0.0016, 0.0073, 0.0035, 0.0253, 0.0329, -0.4106, 0.0382, 0.0929, -0.0404, 654, 118316, 0.0000, 0.0000, -0.6240, 0.0000
6.9120, -0.4511, 0.2746, -9.5223, 0.0016, 0.0073, 0.0035, 0.0252, 0.0331, -0.4146, 0.0383, 0.0931, -0.0415, 655, 118316, 0.0000, 0.0000, -0.6307, 0.0000
6.9320, -0.4511, 0.2746, -9.5223, 0.0016, 0.0073, 0.0035, 0.0252, 0.0336, -0.4185, 0.0382, 0.0933, -0.0412, 656, 118316, 0.0000, 0.0000, -0.6373, 0.0000
6.9520, -0.4511, 0.2746, -9.5223, 0.0016, 0.0073, 0.0035, 0.0251, 0.0340, -0.4224, 0.0377, 0.0936, -0.0414, 657, 118316, 0.0000, 0.0000, -0.6440, 0.0000
6.9620, -0.4511, 0.2746, -9.5223, 0.0016, 0.0073, 0.0035, 0.0251, 0.0344, -0.4263, 0.0376, 0.0937, -0.0417, 658, 118316, 0.0000, 0.0000, -0.6507, 0.0000
6.9920, -0.4511, 0.2746, -9.5223, 0.0016, 0.0073, 0.0035, 0.0253, 0.0348, -0.4302, 0.0376, 0.0936, -0.0416, 659, 118316, 0.0000, 0.0000, -0.6540, 0.0000
7.0050, -0.4511, 0.2746, -9.5223, 0.0016, 0.0073, 0.0035, 0.0253, 0.0352, -0.4340, 0.0375, 0.0938, -0.0431, 660, 118316, 0.0000, 0.0000, -0.6640, 0.0000
7.0250, -0.4511, 0.2746, -9.5223, 0.0016, 0.0073, 0.0035, 0.0256, 0.0358, -0.4380, 0.0372, 0.0938, -0.0429, 661, 118316, 0.0000, 0.0000, -0.6683, 0.0000
7.0450, -0.4511, 0.2746, -9.5223, 0.0016, 0.0073, 0.0035, 0.0257, 0.0363, -0.4418, 0.0370, 0.0945, -0.0436, 662, 118316, 0.0000, 0.0000, -0.6750, 0.0000
7.0650, -0.4511, 0.2746, -9.5223, 0.0016, 0.0073, 0.0035, 0.0260, 0.0368, -0.4459, 0.0371, 0.0944, -0.0442, 663, 118316, 0.0000, 0.0000, -0.6817, 0.0000
7.0850, -0.4511, 0.2746, -9.5223, 0.0016, 0.0073, 0.0035, 0.0262, 0.0374, -0.4496, 0.0371, 0.0947, -0.0444, 664, 118316, 0.0000, 0.0000, -0.6883, 0.0000
7.1050, -0.4511, 0.2746, -9.5223, 0.0016, 0.0073, 0.0035, 0.0264, 0.0380, -0.4536, 0.0371, 0.0955, -0.0447, 665, 118316, 0.0000, 0.0000, -0.6950, 0.0000
7.1250, -0.4511, 0.2746, -9.5223, 0.0016, 0.0073, 0.0035, 0.0268, 0.0386, -0.4575, 0.0368, 0.0955, -0.0450, 666, 118316, 0.0000, 0.0000, -0.7017, 0.0000
7.1450, -0.4511, 0.2746, -9.5223, 0.0016, 0.0073, 0.0035, 0.0271, 0.0393, -0.4615, 0.0369, 0.0962, -0.0454, 667, 118316, 0.0000, 0.0000, -0.7083, 0.0000
7.1650, -0.4511, 0.2746, -9.5223, 0.0016, 0.0073, 0.0035, 0.0274, 0.0399, -0.4656, 0.0369, 0.0969, -0.0459, 668, 118316, 0.0000, 0.0000, -0.7150, 0.0000
7.1850, -0.4511, 0.2746, -9.5223, 0.0016, 0.0073, 0.0035, 0.0278, 0.0405, -0.4694, 0.0366, 0.0974, -0.0470, 669, 118316, 0.0000, 0.0000, -0.7217, 0.0000
7.2050, -0.4511, 0.2746, -9.5223, 0.0016, 0.0073, 0.0035, 0.0281, 0.0412, -0.4735, 0.0364, 0.0978, -0.0473, 670, 118316, 0.0000, 0.0000, -0.7283, 0.0000
7.2250, -0.4511, 0.2746, -9.5223, 0.0016, 0.0073, 0.0035, 0.0286, 0.0417, -0.4775, 0.0367, 0.0981, -0.0484, 671, 118316, 0.0000, 0.0000, -0.7350, 0.0000
7.2450, -0.4511, 0.2746, -9.5223, 0.0016, 0.0073, 0.0035, 0.0290, 0.0423, -0.4814, 0.0363, 0.0986, -0.0487, 672, 118316, 0.0000, 0.0000, -0.7417, 0.0000
7.2650, -0.4511, 0.2746, -9.5223, 0.0016, 0.0073, 0.0035, 0.0295, 0.0429, -0.4855, 0.0367, 0.0990, -0.0494, 673, 118316, 0.0000, 0.0000, -0.7483, 0.0000
7.2850, -0.4511, 0.2746, -9.5223, 0.0016, 0.0073, 0.0035, 0.0298, 0.0435, -0.4895, 0.0364, 0.0998, -0.0493, 674, 118316, 0.0000, 0.0000, -0.7550, 0.0000
7.3050, -0.4511, 0.2746, -9.5223, 0.0016, 0.0073, 0.0035, 0.0303, 0.0441, -0.4935, 0.0367, 0.1000, -0.0502, 675, 118316, 0.0000, 0.0000, -0.7617, 0.0000
7.3250, -0.4511, 0.2746, -9.5223, 0.0016, 0.0073, 0.0035, 0.0307, 0.0448, -0.4975, 0.0364, 0.1011, -0.0505, 676, 118316, 0.0000, 0.0000, -0.7683, 0.0000
7.3450, -0.4511, 0.2746, -9.5223, 0.0016, 0.0073, 0.0035, 0.0311, 0.0454, -0.5014, 0.0368, 0.1012, -0.0518, 677, 118316, 0.0000, 0.0000, -0.7750, 0.0000
7.3650, -0.4511, 0.2746, -9.5223, 0.0016, 0.0073, 0.0035, 0.0316, 0.0461, -0.5056, 0.0364, 0.1022, -0.0515, 678, 118316, 0.0000, 0.0000, -0.7817, 0.0000
7.3850, -0.4511, 0.2746, -9.5223, 0.0016, 0.0073, 0.0035, 0.0321, 0.0466, -0.5095, 0.0363, 0.1026, -0.0511, 679, 118316, 0.0000, 0.0000, -0.7883, 0.0000
7.4050, -0.4511, 0.2746, -9.5223, 0.0016, 0.0073, 0.0035, 0.0327, 0.0473, -0.5136, 0.0366, 0.1032, -0.0514, 680, 118316, 0.0000, 0.0000, -0.7950, 0.0000
7.4250, -0.4511, 0.2746, -9.5223, 0.0016, 0.0073, 0.0035, 0.0331, 0.0479, -0.5176, 0.0366, 0.1033, -0.0519, 681, 118316, 0.0000, 0.0000, -0.8017, 0.0000
7.4450, -0.4511, 0.2746, -9.5223, 0.0016, 0.0073, 0.0035, 0.0337, 0.0484, -0.5217, 0.0362, 0.1035, -0.0520, 682, 118316, 0.0000, 0.0000, -0.8083, 0.0000
7.4650, -0.4511, 0.2746, -9.5223, 0.0016, 0.0073, 0.0035, 0.0341, 0.0490, -0.5259, 0.0363, 0.1038, -0.0524, 683, 118316, 0.0000, 0.0000, -0.8150, 0.0000
7.4850, -0.4511, 0.2746, -9.5223, 0.0016, 0.0073, 0.0035, 0.0346, 0.0496, -0.5300, 0.0361, 0.1042, -0.0526, 684, 118316, 0.0000, 0.0000, -0.8217, 0.0000
7.5050, -0.4511, 0.2746, -9.5223, 0.0016, 0.0073, 0.0035, 0.0351, 0.0501, -0.5342, 0.0359, 0.1051, -0.0528, 685, 118316, 0.0000, 0.0000, -0.8283, 0.0000
7.5250, -0.4511, 0.2746, -9.5223, 0.0016, 0.0073, 0.0035, 0.0354, 0.0507, -0.5383, 0.0362, 0.1060, -0.0526, 686, 118316, 0.0000, 0.0000, -0.8350, 0.0000
7.5450, -0.4511, 0.2746, -9.5223, 0.0016, 0.0073, 0.0035, 0.0360, 0.0512, -0.5426, 0.0361, 0.1076, -0.0528, 687, 118316, 0.0000, 0.0000, -0.8417, 0.0000
7.5650, -0.4511, 0.2746, -9.5223, 0.0016, 0.0073, 0.0035, 0.0364, 0.0518, -0.5467, 0.0359, 0.1080, -0.0533, 688, 118316, 0.0000, 0.0000, -0.8483, 0.0000
7.5850, -0.4511, 0.2746, -9.5223, 0.0016, 0.0073, 0.0035, 0.0368, 0.0523, -0.5510, 0.0360, 0.1088, -0.0536, 689, 118316, 0.0000, 0.0000, -0.8550, 0.0000
7.6050, -0.4511, 0.2746, -9.5223, 0.0016, 0.0073, 0.0035, 0.0372, 0.0527, -0.5553, 0.0359, 0.1096, -0.0537, 690, 118316, 0.0000, 0.0000, -0.8617, 0.0000
7.6250, -0.4511, 0.2746, -9.5223, 0.0016, 0.0073, 0.0035, 0.0376, 0.0533, -0.5596, 0.0358, 0.1100, -0.0543, 691, 118316, 0.0000, 0.0000, -0.8683, 0.0000
7.6450, -0.4511, 0.2746, -9.5223, 0.0016, 0.0073, 0.0035, 0.0381, 0.0536, -0.5640, 0.0359, 0.1107, -0.0547, 692, 118316, 0.0000, 0.0000, -0.8750, 0.0000
7.6650, -0.4511, 0.2746, -9.5223, 0.0016, 0.0073, 0.0035, 0.0384, 0.0540, -0.5683, 0.0359, 0.1108, -0.0552, 693, 118316, 0.0000, 0.0000, -0.8817, 0.0000
7.6850, -0.4511, 0.2746, -9.5223, 0.0016, 0.0073, 0.0035, 0.0388, 0.0545, -0.5728, 0.0357, 0.1116, -0.0552, 694, 118316, 0.0000, 0.0000, -0.8883, 0.0000
7.7050, -0.4511, 0.2746, -9.5223, 0.0016, 0.0073, 0.0035, 0.0390, 0.0548, -0.5772, 0.0358, 0.1118, -0.0553, 695, 118316, 0.0000, 0.0000, -0.8950, 0.0000
7.7250, -0.4511, 0.2746, -9.5223, 0.0016, 0.0073, 0.0035, 0.0392, 0.0553, -0.5815, 0.0356, 0.1123, -0.0554, 696, 118316, 0.0000, 0.0000, -0.9017, 0.0000
7.7450, -0.4511, 0.2746, -9.5223, 0.0016, 0.0073, 0.0035, 0.0395, 0.0555, -0.5861, 0.0359, 0.1128, -0.0557, 697, 118316, 0.0000, 0.0000, -0.9083, 0.0000
7.7650, -0.4511, 0.2746, -9.5223, 0.0016, 0.0073, 0.0035, 0.0396, 0.0559, -0.5905, 0.0359, 0.1129, -0.0557, 698, 118316, 0.0000, 0.0000, -0.9150, 0.0000
7.7850, -0.4511, 0.2746, -9.5223, 0.0016, 0.0073, 0.0035, 0.0398, 0.0562, -0.5953, 0.0359, 0.1137, -0.0557, 699, 118316, 0.0000, 0.0000, -0.9217, 0.0000
7.8050, -0.4511, 0.2746, -9.5223, 0.0016, 0.0073, 0.0035, 0.0399, 0.0564, -0.5997, 0.0363, 0.1136, -0.0559, 700, 118316, 0.0000, 0.0000, -0.9283, 0.0000
7.8250, -0.4511, 0.2746, -9.5223, 0.0016, 0.0073, 0.0035, 0.0400, 0.0566, -0.6045, 0.0363, 0.1136, -0.0557, 701, 118316, 0.0000, 0.0000, -0.9350, 0.0000
7.8450, -0.4511, 0.2746, -9.5223, 0.0016, 0.0073, 0.0035, 0.0401, 0.0569, -0.6093, 0.0364, 0.1131, -0.0562, 702, 118316, 0.0000, 0.0000, -0.9417, 0.0000
7.8650, -0.4511, 0.2746, -9.5223, 0.0016, 0.0073, 0.0035, 0.0402, 0.0570, -0.6141, 0.0363, 0.1126, -0.0563, 703, 118316, 0.0000, 0.0000, -0.9483, 0.0000
7.8850, -0.4511, 0.2746, -9.5223, 0.0016, 0.0073, 0.0035, 0.0402, 0.0572, -0.6189, 0.0365, 0.1126, -0.0565, 704, 118316, 0.0000, 0.0000, -0.9550, 0.0000
7.9050, -0.4511, 0.2746, -9.5223, 0.0016, 0.0073, 0.0035, 0.0401, 0.0574, -0.6239, 0.0364, 0.1124, -0.0565, 705, 118316, 0.0000, 0.0000, -0.9617, 0.0000
7.9250, -0.4511, 0.2746, -9.5223, 0.0016, 0.0073, 0.0035, 0.0401, 0.0575, -0.6289, 0.0363, 0.1121, -0.0562, 706, 118316, 0.0000, 0.0000, -0.9683, 0.0000
7.9450, -0.4511, 0.2746, -9.5223, 0.0016, 0.0073, 0.0035, 0.0400, 0.0576, -0.6339, 0.0361, 0.1119, -0.0555, 707, 118316, 0.0000, 0.0000, -0.9750, 0.0000
7.9650, -0.4511, 0.2746, -9.5223, 0.0016, 0.0073, 0.0035, 0.0399, 0.0577, -0.6389, 0.0364, 0.1111, -0.0555, 708, 118316, 0.0000, 0.0000, -0.9817, 0.0000
7.9850, -0.4511, 0.2746, -9.5223, 0.0016, 0.0073, 0.0035, 0.0397, 0.0577, -0.6442, 0.0363, 0.1106, -0.0554, 709, 118316, 0.0000, 0.0000, -0.9883, 0.0000
8.0050, -0.4511, 0.2746, -9.5223, 0.0016, 0.0073, 0.0035, 0.0396, 0.0578, -0.6492, 0.0365, 0.1101, -0.0550, 710, 118316, 0.0000, 0.0000, -0.9950, 0.0000
8.0250, -0.4511, 0.2746, -9.5223, 0.0016, 0.0073, 0.0035, 0.0394, 0.0577, -0.6545, 0.0367, 0.1098, -0.0550, 711, 118316, 0.0000, 0.0000, -1.0000, 0.0000
8.0450, -0.4511, 0.2746, -9.5223, 0.0016, 0.0073, 0.0035, 0.0392, 0.0578, -0.6597, 0.0368, 0.1093, -0.0550, 712, 118316, 0.0000, 0.0000, -1.0000, 0.0000
8.0650, -0.4511, 0.2746, -9.5223, 0.0016, 0.0073, 0.0035, 0.0390, 0.0578, -0.6650, 0.0370, 0.1090, -0.0543, 713, 118316, 0.0000, 0.0000, -1.0000, 0.0000
8.0850, -0.4511, 0.2746, -9.5223, 0.0016, 0.0073, 0.0035, 0.0388, 0.0578, -0.6703, 0.0369, 0.1084, -0.0538, 714, 118316, 0.0000, 0.0000, -1.0000, 0.0000
8.1050, -0.4511, 0.2746, -9.5223, 0.0016, 0.0073, 0.0035, 0.0385, 0.0577, -0.6757, 0.0373, 0.1079, -0.0540, 715, 118316, 0.0000, 0.0000, -1.0000, 0.0000
8.1250, -0.4511, 0.2746, -9.5223, 0.0016, 0.0073, 0.0035, 0.0383, 0.0576, -0.6812, 0.0373, 0.1075, -0.0541, 716, 118316, 0.0000, 0.0000, -1.0000, 0.0000
8.1450, -0.4511, 0.2746, -9.5223, 0.0016, 0.0073, 0.0035, 0.0380, 0.0576, -0.6865, 0.0373, 0.1071, -0.0533, 717, 118316, 0.0000, 0.0000, -1.0000, 0.0000
8.1650, -0.4511, 0.2746, -9.5223, 0.0016, 0.0073, 0.0035, 0.0378, 0.0575, -0.6921, 0.0372, 0.1064, -0.0529, 718, 118316, 0.0000, 0.0000, -1.0000, 0.0000
8.1870, -0.4511, 0.2746, -9.5223, 0.0016, 0.0073, 0.0035, 0.0376, 0.0575, -0.6975, 0.0375, 0.1056, -0.0522, 719, 118316, 0.0000, 0.0000, -1.0000, 0.0000
8.2070, -0.4511, 0.2746, -9.5223, 0.0016, 0.0073, 0.0035, 0.0373, 0.0574, -0.7029, 0.0376, 0.1055, -0.0515, 720, 118316, 0.0000, 0.0000, -1.0000, 0.0000
8.2270, -0.4511, 0.2746, -9.5223, 0.0016, 0.0073, 0.0035, 0.0371, 0.0572, -0.7083, 0.0377, 0.1052, -0.0510, 721, 118316, 0.0000, 0.0000, -1.0000, 0.0000
8.2470, -0.4511, 0.2746, -9.5223, 0.0016, 0.0073, 0.0035, 0.0367, 0.0572, -0.7137, 0.0379, 0.1047, -0.0506, 722, 118316, 0.0000, 0.0000, -1.0000, 0.0000
8.2660, -0.4511, 0.2746, -9.5223, 0.0016, 0.0073, 0.0035, 0.0365, 0.0570, -0.7192, 0.0381, 0.1041, -0.0501, 723, 118316, 0.0000, 0.0000, -1.0000, 0.0000
8.2870, -0.4511, 0.2746, -9.5223, 0.0016, 0.0073, 0.0035, 0.0363, 0.0570, -0.7243, 0.0379, 0.1040, -0.0496, 724, 118316, 0.0000, 0.0000, -1.0000, 0.0000
8.3070, -0.4511, 0.2746, -9.5223, 0.0016, 0.0073, 0.0035, 0.0360, 0.0568, -0.7296, 0.0381, 0.1037, -0.0496, 725, 118316, 0.0000, 0.0000, -1.0000, 0.0000
8.3270, -0.4511, 0.2746, -9.5223, 0.0016, 0.0073, 0.0035, 0.0358, 0.0567, -0.7347, 0.0383, 0.1035, -0.0491, 726, 118316, 0.0000, 0.0000, -1.0000, 0.0000
8.3460, -0.4511, 0.2746, -9.5223, 0.0016, 0.0073, 0.0035, 0.0356, 0.0566, -0.7399, 0.0383, 0.1034, -0.0487, 727, 118316, 0.0000, 0.0000, -1.0000, 0.0000
8.3660, -0.4511, 0.2746, -9.5223, 0.0016, 0.0073, 0.0035, 0.0353, 0.0565, -0.7451, 0.0384, 0.1034, -0.0487, 728, 118316, 0.0000, 0.0000, -1.0000, 0.0000
8.3870, -0.4511, 0.2746, -9.5223, 0.0016, 0.0073, 0.0035, 0.0351, 0.0564, -0.7500, 0.0383, 0.1030, -0.0485, 729, 118316, 0.0000, 0.0000, -1.0000, 0.0000
8.4070, -0.4511, 0.2746, -9.5223, 0.0016, 0.0073, 0.0035, 0.0350, 0.0562, -0.7551, 0.0384, 0.1029, -0.0481, 730, 118316, 0.0000, 0.0000, -1.0000, 0.0000
8.4270, -0.4511, 0.2746, -9.5223, 0.0016, 0.0073, 0.0035, 0.0346, 0.0562, -0.7599, 0.0384, 0.1028, -0.0483, 731, 118316, 0.0000, 0.0000, -1.0000, 0.0000
8.4470, -0.4511, 0.2746, -9.5223, 0.0016, 0.0073, 0.0035, 0.0345, 0.0562, -0.7647, 0.0384, 0.1025, -0.0479, 732, 118316, 0.0000, 0.0000, -1.0000, 0.0000
8.4660, -0.4511, 0.2746, -9.5223, 0.0016, 0.0073, 0.0035, 0.0342, 0.0561, -0.7696, 0.0383, 0.1024, -0.0474, 733, 118316, 0.0000, 0.0000, -1.0000, 0.0000
8.4870, -0.4511, 0.2746, -9.5223, 0.0016, 0.0073, 0.0035, 0.0340, 0.0561, -0.7742, 0.0381, 0.1021, -0.0473, 734, 118316, 0.0000, 0.0000, -1.0000, 0.0000
8.5060, -0.4511, 0.2746, -9.5223, 0.0016, 0.0073, 0.0035, 0.0339, 0.0560, -0.7789, 0.0381, 0.1021, -0.0471, 735, 118316, 0.0000, 0.0000, -1.0000, 0.0000
8.5270, -0.4511, 0.2746, -9.5223, 0.0016, 0.0073, 0.0035, 0.0337, 0.0561, -0.7833, 0.0381, 0.1016, -0.0470, 736, 118316, 0.0000, 0.0000, -1.0000, 0.0000
8.5470, -0.4511, 0.2746, -9.5223, 0.0016, 0.0073, 0.0035, 0.0336, 0.0560, -0.7878, 0.0380, 0.1014, -0.0464, 737, 118316, 0.0000, 0.0000, -1.0000, 0.0000
8.5660, -0.4511, 0.2746, -9.5223, 0.0016, 0.0073, 0.0035, 0.0335, 0.0560, -0.7922, 0.0381, 0.1008, -0.0465, 738, 118316, 0.0000, 0.0000, -1.0000, 0.0000
8.5870, -0.4511, 0.2746, -9.5223, 0.0016, 0.0073, 0.0035, 0.0334, 0.0560, -0.7964, 0.0380, 0.1003, -0.0460, 739, 118316, 0.0000, 0.0000, -1.0000, 0.0000
8.6070, -0.4511, 0.2746, -9.5223, 0.0016, 0.0073, 0.0035, 0.0333, 0.0560, -0.8007, 0.0382, 0.1002, -0.0458, 740, 118316, 0.0000, 0.0000, -1.0000, 0.0000
8.6270, -0.4511, 0.2746, -9.5223, 0.0016, 0.0073, 0.0035, 0.0332, 0.0561, -0.8048, 0.0383, 0.1001, -0.0462, 741, 118316, 0.0000, 0.0000, -1.0000, 0.0000
8.6470, -0.4511, 0.2746, -9.5223, 0.0016, 0.0073, 0.0035, 0.0332, 0.0561, -0.8088, 0.0385, 0.1000, -0.0460, 742, 118316, 0.0000, 0.0000, -1.0000, 0.0000
8.6660, -0.4511, 0.2746, -9.5223, 0.0016, 0.0073, 0.0035, 0.0331, 0.0563, -0.8127, 0.0384, 0.0998, -0.0463, 743, 118316, 0.0000, 0.0000, -1.0000, 0.0000
8.6870, -0.4511, 0.2746, -9.5223, 0.0016, 0.0073, 0.0035, 0.0331, 0.0563, -0.8166, 0.0385, 0.1000, -0.0460, 744, 118316, 0.0000, 0.0000, -1.0000, 0.0000
8.7070, -0.4511, 0.2746, -9.5223, 0.0016, 0.0073, 0.0035, 0.0330, 0.0564, -0.8203, 0.0385, 0.1002, -0.0462, 745, 118316, 0.0000, 0.0000, -1.0000, 0.0000
8.7270, -0.4511, 0.2746, -9.5223, 0.0016, 0.0073, 0.0035, 0.0330, 0.0565, -0.8240, 0.0388, 0.1004, -0.0462, 746, 118316, 0.0000, 0.0000, -1.0000, 0.0000
8.7470, -0.4511, 0.2746, -9.5223, 0.0016, 0.0073, 0.0035, 0.0331, 0.0566, -0.8276, 0.0388, 0.1002, -0.0464, 747, 118316, 0.0000, 0.0000, -1.0000, 0.0000
8.7660, -0.4511, 0.2746, -9.5223, 0.0016, 0.0073, 0.0035, 0.0331, 0.0568, -0.8310, 0.0389, 0.0998, -0.0464, 748, 118316, 0.0000, 0.0000, -1.0000, 0.0000
8.7870, -0.4511, 0.2746, -9.5223, 0.0016, 0.0073, 0.0035, 0.0332, 0.0569, -0.8346, 0.0388, 0.0998, -0.0468, 749, 118316, 0.0000, 0.0000, -1.0000, 0.0000
8.8070, -0.4511, 0.2746, -9.5223, 0.0016, 0.0073, 0.0035, 0.0333, 0.0571, -0.8377, 0.0387, 0.0998, -0.0464, 750, 118316, 0.0000, 0.0000, -1.0000, 0.0000
8.8270, -0.4511, 0.2746, -9.5223, 0.0016, 0.0073, 0.0035, 0.0333, 0.0573, -0.8410, 0.0391, 0.0999, -0.0467, 751, 118316, 0.0000, 0.0000, -1.0000, 0.0000
8.8470, -0.4511, 0.2746, -9.5223, 0.0016, 0.0073, 0.0035, 0.0335, 0.0574, -0.8442, 0.0390, 0.1007, -0.0467, 752, 118316, 0.0000, 0.0000, -1.0000, 0.0000
8.8660, -0.4511, 0.2746, -9.5223, 0.0016, 0.0073, 0.0035, 0.0337, 0.0576, -0.8471, 0.0392, 0.1007, -0.0470, 753, 118316, 0.0000, 0.0000, -1.0000, 0.0000
8.8860, -0.4511, 0.2746, -9.5223, 0.0016, 0.0073, 0.0035, 0.0338, 0.0579, -0.8502, 0.0394, 0.1009, -0.0471, 754, 118316, 0.0000, 0.0000, -1.0000, 0.0000
8.9070, -0.4511, 0.2746, -9.5223, 0.0016, 0.0073, 0.0035, 0.0339, 0.0581, -0.8531, 0.0395, 0.1007, -0.0470, 755, 118316, 0.0000, 0.0000, -1.0000, 0.0000
8.9260, -0.4511, 0.2746, -9.5223, 0.0016, 0.0073, 0.0035, 0.0342, 0.0583, -0.8561, 0.0394, 0.1011, -0.0471, 756, 118316, 0.0000, 0.0000, -1.0000, 0.0000
8.9460, -0.4511, 0.2746, -9.5223, 0.0016, 0.0073, 0.0035, 0.0344, 0.0585, -0.8588, 0.0396, 0.1014, -0.0475, 757, 118316, 0.0000, 0.0000, -1.0000, 0.0000
8.9660, -0.4511, 0.2746, -9.5223, 0.0016, 0.0073, 0.0035, 0.0346, 0.0588, -0.8615, 0.0395, 0.1013, -0.0474, 758, 118316, 0.0000, 0.0000, -1.0000, 0.0000
8.9870, -0.4511, 0.2746, -9.5223, 0.0016, 0.0073, 0.0035, 0.0349, 0.0591, -0.8642, 0.0397, 0.1018, -0.0485, 759, 118316, 0.0000, 0.0000, -1.0000, 0.0000
9.0070, -0.4511, 0.2746, -9.5223, 0.0016, 0.0073, 0.0035, 0.0350, 0.0594, -0.8666, 0.0397, 0.1022, -0.0483, 760, 118316, 0.0000, 0.0000, -1.0000, 0.0000
9.0270, -0.4511, 0.2746, -9.5223, 0.0016, 0.0073, 0.0035, 0.0354, 0.0597, -0.8693, 0.0399, 0.1028, -0.0482, 761, 118316, 0.0000, 0.0000, -1.0000, 0.0000
9.0470, -0.4511, 0.2746, -9.5223, 0.0016, 0.0073, 0.0035, 0.0355, 0.0599, -0.8716, 0.0402, 0.1032, -0.0486, 762, 118316, 0.0000, 0.0000, -1.0000, 0.0000
9.0660, -0.4511, 0.2746, -9.5223, 0.0016, 0.0073, 0.0035, 0.0358, 0.0603, -0.8741, 0.0401, 0.1042, -0.0478, 763, 118316, 0.0000, 0.0000, -1.0000, 0.0000
9.0870, -0.4511, 0.2746, -9.5223, 0.0016, 0.0073, 0.0035, 0.0361, 0.0606, -0.8765, 0.0402, 0.1048, -0.0484, 764, 118316, 0.0000, 0.0000, -1.0000, 0.0000
9.1070, -0.4511, 0.2746, -9.5223, 0.0016, 0.0073, 0.0035, 0.0363, 0.0609, -0.8787, 0.0403, 0.1051, -0.0490, 765, 118316, 0.0000, 0.0000, -1.0000, 0.0000
9.1270, -0.4511, 0.2746, -9.5223, 0.0016, 0.0073, 0.0035, 0.0366, 0.0612, -0.8810, 0.0402, 0.1056, -0.0487, 766, 118316, 0.0000, 0.0000, -1.0000, 0.0000
9.1470, -0.4511, 0.2746, -9.5223, 0.0016, 0.0073, 0.0035, 0.0369, 0.0615, -0.8833, 0.0403, 0.1060, -0.0486, 767, 118316, 0.0000, 0.0000, -1.0000, 0.0000
9.1660, -0.4511, 0.2746, -9.5223, 0.0016, 0.0073, 0.0035, 0.0372, 0.0618, -0.8854, 0.0404, 0.1060, -0.0488, 768, 118316, 0.0000, 0.0000, -1.0000, 0.0000
9.1870, -0.4511, 0.2746, -9.5223, 0.0016, 0.0073, 0.0035, 0.0374, 0.0621, -0.8876, 0.0404, 0.1063, -0.0489, 769, 118316, 0.0000, 0.0000, -1.0000, 0.0000
9.2070, -0.4511, 0.2746, -9.5223, 0.0016, 0.0073, 0.0035, 0.0376, 0.0625, -0.8896, 0.0402, 0.1070, -0.0491, 770, 118316, 0.0000, 0.0000, -1.0000, 0.0000
9.2270, -0.4511, 0.2746, -9.5223, 0.0016, 0.0073, 0.0035, 0.0378, 0.0628, -0.8917, 0.0404, 0.1074, -0.0494, 771, 118316, 0.0000, 0.0000, -1.0000, 0.0000
9.2470, -0.4511, 0.2746, -9.5223, 0.0016, 0.0073, 0.0035, 0.0380, 0.0631, -0.8937, 0.0402, 0.1082, -0.0494, 772, 118316, 0.0000, 0.0000, -1.0000, 0.0000
9.2660, -0.4511, 0.2746, -9.5223, 0.0016, 0.0073, 0.0035, 0.0383, 0.0635, -0.8956, 0.0402, 0.1086, -0.0492, 773, 118316, 0.0000, 0.0000, -1.0000, 0.0000
9.2870, -0.4511, 0.2746, -9.5223, 0.0016, 0.0073, 0.0035, 0.0383, 0.0638, -0.8976, 0.0404, 0.1088, -0.0497, 774, 118316, 0.0000, 0.0000, -1.0000, 0.0000
9.3060, -0.4511, 0.2746, -9.5223, 0.0016, 0.0073, 0.0035, 0.0386, 0.0641, -0.8994, 0.0404, 0.1090, -0.0501, 775, 118316, 0.0000, 0.0000, -1.0000, 0.0000
9.3260, -0.4511, 0.2746, -9.5223, 0.0016, 0.0073, 0.0035, 0.0387, 0.0644, -0.9013, 0.0405, 0.1092, -0.0501, 776, 118316, 0.0000, 0.0000, -1.0000, 0.0000
9.3460, -0.4511, 0.2746, -9.5223, 0.0016, 0.0073, 0.0035, 0.0387, 0.0647, -0.9031, 0.0405, 0.1094, -0.0510, 777, 118316, 0.0000, 0.0000, -1.0000, 0.0000
9.3660, -0.4511, 0.2746, -9.5223, 0.0016, 0.0073, 0.0035, 0.0390, 0.0649, -0.9049, 0.0406, 0.1092, -0.0518, 778, 118316, 0.0000, 0.0000, -1.0000, 0.0000
9.3870, -0.4511, 0.2746, -9.5223, 0.0016, 0.0073, 0.0035, 0.0390, 0.0652, -0.9065, 0.0408, 0.1094, -0.0520, 779, 118316, 0.0000, 0.0000, -1.0000, 0.0000
9.4070, -0.4511, 0.2746, -9.5223, 0.0016, 0.0073, 0.0035, 0.0391, 0.0656, -0.9082, 0.0407, 0.1094, -0.0519, 780, 118316, 0.0000, 0.0000, -1.0000, 0.0000
9.4270, -0.4511, 0.2746, -9.5223, 0.0016, 0.0073, 0.0035, 0.0392, 0.0658, -0.9099, 0.0406, 0.1098, -0.0518, 781, 118316, 0.0000, 0.0000, -1.0000, 0.0000
9.4470, -0.4511, 0.2746, -9.5223, 0.0016, 0.0073, 0.0035, 0.0392, 0.0661, -0.9115, 0.0408, 0.1095, -0.0523, 782, 118316, 0.0000, 0.0000, -1.0000, 0.0000
9.4660, -0.4511, 0.2746, -9.5223, 0.0016, 0.0073, 0.0035, 0.0393, 0.0664, -0.9131, 0.0409, 0.1102, -0.0524, 783, 118316, 0.0000, 0.0000, -1.0000, 0.0000
9.4870, -0.4511, 0.2746, -9.5223, 0.0016, 0.0073, 0.0035, 0.0393, 0.0666, -0.9145, 0.0408, 0.1106, -0.0526, 784, 118316, 0.0000, 0.0000, -1.0000, 0.0000
9.5070, -0.4511, 0.2746, -9.5223, 0.0016, 0.0073, 0.0035, 0.0393, 0.0668, -0.9161, 0.0410, 0.1105, -0.0527, 785, 118316, 0.0000, 0.0000, -1.0000, 0.0000
9.5270, -0.4511, 0.2746, -9.5223, 0.0016, 0.0073, 0.0035, 0.0392, 0.0670, -0.9175, 0.0408, 0.1104, -0.0530, 786, 118316, 0.0000, 0.0000, -1.0000, 0.0000
9.5470, -0.4511, 0.2746, -9.5223, 0.0016, 0.0073, 0.0035, 0.0392, 0.0672, -0.9189, 0.0409, 0.1100, -0.0532, 787, 118316, 0.0000, 0.0000, -1.0000, 0.0000
9.5660, -0.4511, 0.2746, -9.5223, 0.0016, 0.0073, 0.0035, 0.0392, 0.0674, -0.9203, 0.0409, 0.1101, -0.0534, 788, 118316, 0.0000, 0.0000, -1.0000, 0.0000
9.5870, -0.4511, 0.2746, -9.5223, 0.0016, 0.0073, 0.0035, 0.0391, 0.0675, -0.9215, 0.0408, 0.1100, -0.0536, 789, 118316, 0.0000, 0.0000, -1.0000, 0.0000
9.6070, -0.4511, 0.2746, -9.5223, 0.0016, 0.0073, 0.0035, 0.0391, 0.0677, -0.9230, 0.0408, 0.1102, -0.0537, 790, 118316, 0.0000, 0.0000, -1.0000, 0.0000
9.6270, -0.4511, 0.2746, -9.5223, 0.0016, 0.0073, 0.0035, 0.0389, 0.0678, -0.9242, 0.0408, 0.1100, -0.0538, 791, 118316, 0.0000, 0.0000, -1.0000, 0.0000
9.6470, -0.4511, 0.2746, -9.5223, 0.0016, 0.0073, 0.0035, 0.0388, 0.0679, -0.9255, 0.0409, 0.1104, -0.0540, 792, 118316, 0.0000, 0.0000, -1.0000, 0.0000
9.6660, -0.4511, 0.2746, -9.5223, 0.0016, 0.0073, 0.0035, 0.0387, 0.0680, -0.9266, 0.0411, 0.1106, -0.0538, 793, 118316, 0.0000, 0.0000, -1.0000, 0.0000
9.6870, -0.4511, 0.2746, -9.5223, 0.0016, 0.0073, 0.0035, 0.0385, 0.0681, -0.9277, 0.0412, 0.1111, -0.0536, 794, 118316, 0.0000, 0.0000, -1.0000, 0.0000
9.7070, -0.4511, 0.2746, -9.5223, 0.0016, 0.0073, 0.0035, 0.0382, 0.0682, -0.9288, 0.0413, 0.1115, -0.0538, 795, 118316, 0.0000, 0.0000, -1.0000, 0.0000
9.7270, -0.4511, 0.2746, -9.5223, 0.0016, 0.0073, 0.0035, 0.0380, 0.0683, -0.9299, 0.0414, 0.1114, -0.0535, 796, 118316, 0.0000, 0.0000, -1.0000, 0.0000
9.7470, -0.4511, 0.2746, -9.5223, 0.0016, 0.0073, 0.0035, 0.0378, 0.0683, -0.9310, 0.0415, 0.1112, -0.0535, 797, 118316, 0.0000, 0.0000, -1.0000, 0.0000
9.7660, -0.4511, 0.2746, -9.5223, 0.0016, 0.0073, 0.0035, 0.0375, 0.0683, -0.9319, 0.0414, 0.1105, -0.0536, 798, 118316, 0.0000, 0.0000, -1.0000, 0.0000
9.7870, -0.4511, 0.2746, -9.5223, 0.0016, 0.0073, 0.0035, 0.0372, 0.0684, -0.9328, 0.0416, 0.1106, -0.0532, 799, 118316, 0.0000, 0.0000, -1.0000, 0.0000
9.8070, -0.4511, 0.2746, -9.5223, 0.0016, 0.0073, 0.0035, 0.0369, 0.0684, -0.9337, 0.0415, 0.1107, -0.0533, 800, 118316, 0.0000, 0.0000, -1.0000, 0.0000
9.8270, -0.4511, 0.2746, -9.5223, 0.0016, 0.0073, 0.0035, 0.0366, 0.0684, -0.9346, 0.0415, 0.1107, -0.0528, 801, 118316, 0.0000, 0.0000, -1.0000, 0.0000
9.8470, -0.4511, 0.2746, -9.5223, 0.0016, 0.0073, 0.0035, 0.0363, 0.0683, -0.9355, 0.0416, 0.1104, -0.0526, 802, 118316, 0.0000, 0.0000, -1.0000, 0.0000
9.8660, -0.4511, 0.2746, -9.5223, 0.0016, 0.0073, 0.0035, 0.0360, 0.0683, -0.9363, 0.0416, 0.1101, -0.0523, 803, 118316, 0.0000, 0.0000, -1.0000, 0.0000
9.8870, -0.4511, 0.2746, -9.5223, 0.0016, 0.0073, 0.0035, 0.0357, 0.0682, -0.9371, 0.0414, 0.1104, -0.0515, 804, 118316, 0.0000, 0.0000, -1.0000, 0.0000
9.9070, -0.4511, 0.2746, -9.5223, 0.0016, 0.0073, 0.0035, 0.0352, 0.0682, -0.9378, 0.0418, 0.1106, -0.0514, 805, 118316, 0.0000, 0.0000, -1.0000, 0.0000
9.9270, -0.4511, 0.2746, -9.5223, 0.0016, 0.0073, 0.0035, 0.0349, 0.0681, -0.9386, 0.0418, 0.1106, -0.0515, 806, 118316, 0.0000, 0.0000, -1.0000, 0.0000
9.9470, -0.4511, 0.2746, -9.5223, 0.0016, 0.0073, 0.0035, 0.0345, 0.0680, -0.9392, 0.0422, 0.1103, -0.0514, 807, 118316, 0.0000, 0.0000, -1.0000, 0.0000
9.9660, -0.4511, 0.2746, -9.5223, 0.0016, 0.0073, 0.0035, 0.0340, 0.0679, -0.9400, 0.0422, 0.1100, -0.0513, 808, 118316, 0.0000, 0.0000, -1.0000, 0.0000
9.9860, -0.4511, 0.2746, -9.5223, 0.0016, 0.0073, 0.0035, 0.0337, 0.0678, -0.9406, 0.0425, 0.1096, -0.0510, 809, 118316, 0.0000, 0.0000, -1.0000, 0.0000
10.0070, -0.4511, 0.2746, -9.5223, 0.0016, 0.0073, 0.0035, 0.0332, 0.0677, -0.9412, 0.0424, 0.1095, -0.0508, 810, 118316, 0.0000, 0.0000, -1.0000, 0.0000
10.0270, -0.4511, 0.2746, -9.5223, 0.0016, 0.0073, 0.0035, 0.0328, 0.0676, -0.9419, 0.0425, 0.1089, -0.0506, 811, 118316, 0.0023, 0.0023, -1.0012, 0.0000
10.0470, -0.4511, 0.2746, -9.5223, 0.0016, 0.0073, 0.0035, 0.0323, 0.0676, -0.9424, 0.0428, 0.1085, -0.0502, 812, 118316, 0.0090, 0.0090, -1.0045, 0.0000
10.0660, -0.4511, 0.2746, -9.5223, 0.0016, 0.0073, 0.0035, 0.0318, 0.0675, -0.9429, 0.0427, 0.1079, -0.0493, 813, 118316, 0.0157, 0.0157, -1.0078, 0.0000
10.0870, -0.4511, 0.2746, -9.5223, 0.0016, 0.0073, 0.0035, 0.0315, 0.0674, -0.9435, 0.0430, 0.1070, -0.0487, 814, 118316, 0.0220, 0.0220, -1.0110, 0.0000
10.1070, -0.4511, 0.2746, -9.5223, 0.0016, 0.0073, 0.0035, 0.0310, 0.0673, -0.9438, 0.0431, 0.1064, -0.0480, 815, 118316, 0.0290, 0.0290, -1.0145, 0.0000
10.1270, -0.4511, 0.2746, -9.5223, 0.0016, 0.0073, 0.0035, 0.0306, 0.0672, -0.9443, 0.0432, 0.1061, -0.0475, 816, 118316, 0.0357, 0.0357, -1.0178, 0.0000
10.1470, -0.4511, 0.2746, -9.5223, 0.0016, 0.0073, 0.0035, 0.0300, 0.0672, -0.9447, 0.0433, 0.1055, -0.0471, 817, 118316, 0.0423, 0.0423, -1.0212, 0.0000
10.1660, -0.4511, 0.2746, -9.5223, 0.0016, 0.0073, 0.0035, 0.0296, 0.0671, -0.9452, 0.0433, 0.1041, -0.0465, 818, 118316, 0.0490, 0.0490, -1.0245, 0.0000
10.1880, -0.4511, 0.2746, -9.5223, 0.0016, 0.0073, 0.0035, 0.0292, 0.0670, -0.9457, 0.0435, 0.1031, -0.0460, 819, 118316, 0.0553, 0.0553, -1.0277, 0.0000
10.2080, -0.4511, 0.2746, -9.5223, 0.0016, 0.0073, 0.0035, 0.0288, 0.0671, -0.9459, 0.0436, 0.1013, -0.0449, 820, 118316, 0.0627, 0.0627, -1.0313, 0.0000
10.2280, -0.4511, 0.2746, -9.5223, 0.0016, 0.0073, 0.0035, 0.0285, 0.0671, -0.9465, 0.0434, 0.0998, -0.0431, 821, 118316, 0.0693, 0.0693, -1.0347, 0.0000
10.2480, -0.4511, 0.2746, -9.5223, 0.0016, 0.0073, 0.0035, 0.0281, 0.0672, -0.9468, 0.0438, 0.0969, -0.0412, 822, 118316, 0.0760, 0.0760, -1.0380, 0.0000
10.2680, -0.4511, 0.2746, -9.5223, 0.0016, 0.0073, 0.0035, 0.0280, 0.0673, -0.9473, 0.0436, 0.0946, -0.0388, 823, 118316, 0.0827, 0.0827, -1.0413, 0.0000
10.2880, -0.4511, 0.2746, -9.5223, 0.0016, 0.0073, 0.0035, 0.0277, 0.0675, -0.9477, 0.0436, 0.0921, -0.0363, 824, 118316, 0.0893, 0.0893, -1.0447, 0.0000
10.3080, -0.4511, 0.2746, -9.5223, 0.0016, 0.0073, 0.0035, 0.0276, 0.0677, -0.9481, 0.0440, 0.0897, -0.0343, 825, 118316, 0.0960, 0.0960, -1.0480, 0.0000
10.3280, -0.4511, 0.2746, -9.5223, 0.0016, 0.0073, 0.0035, 0.0274, 0.0679, -0.9486, 0.0439, 0.0875, -0.0318, 826, 118316, 0.1027, 0.1027, -1.0513, 0.0000
10.3490, -0.4511, 0.2746, -9.5223, 0.0016, 0.0073, 0.0035, 0.0274, 0.0683, -0.9491, 0.0441, 0.0848, -0.0298, 827, 118316, 0.1093, 0.1093, -1.0547, 0.0000
10.3690, -0.4511, 0.2746, -9.5223, 0.0016, 0.0073, 0.0035, 0.0274, 0.0687, -0.9497, 0.0442, 0.0820, -0.0279, 828, 118316, 0.1163, 0.1163, -1.0582, 0.0000
10.3890, -0.4511, 0.2746, -9.5223, 0.0016, 0.0073, 0.0035, 0.0276, 0.0691, -0.9503, 0.0446, 0.0794, -0.0258, 829, 118316, 0.1230, 0.1230, -1.0615, 0.0000
10.4090, -0.4511, 0.2746, -9.5223, 0.0016, 0.0073, 0.0035, 0.0279, 0.0697, -0.9509, 0.0448, 0.0768, -0.0239, 830, 118316, 0.1297, 0.1297, -1.0648, 0.0000
10.4290, -0.4511, 0.2746, -9.5223, 0.0016, 0.0073, 0.0035, 0.0282, 0.0705, -0.9515, 0.0450, 0.0741, -0.0219, 831, 118316, 0.1363, 0.1363, -1.0682, 0.0000
10.4500, -0.4511, 0.2746, -9.5223, 0.0016, 0.0073, 0.0035, 0.0287, 0.0713, -0.9522, 0.0450, 0.0713, -0.0200, 832, 118316, 0.1430, 0.1430, -1.0715, 0.0000
10.4690, -0.4511, 0.2746, -9.5223, 0.0016, 0.0073, 0.0035, 0.0293, 0.0722, -0.9529, 0.0454, 0.0693, -0.0178, 833, 118316, 0.1500, 0.1500, -1.0750, 0.0000
10.4890, -0.4511, 0.2746, -9.5223, 0.0016, 0.0073, 0.0035, 0.0299, 0.0733, -0.9536, 0.0453, 0.0674, -0.0161, 834, 118316, 0.1563, 0.1563, -1.0782, 0.0000
10.5090, -0.4511, 0.2746, -9.5223, 0.0016, 0.0073, 0.0035, 0.0308, 0.0745, -0.9544, 0.0457, 0.0655, -0.0149, 835, 118316, 0.1630, 0.1630, -1.0815, 0.0000
10.5290, -0.4511, 0.2746, -9.5223, 0.0016, 0.0073, 0.0035, 0.0317, 0.0758, -0.9552, 0.0457, 0.0636, -0.0134, 836, 118316, 0.1697, 0.1697, -1.0848, 0.0000
10.5490, -0.4511, 0.2746, -9.5223, 0.0016, 0.0073, 0.0035, 0.0329, 0.0773, -0.9561, 0.0461, 0.0619, -0.0117, 837, 118316, 0.1763, 0.1763, -1.0882, 0.0000
10.5690, -0.4511, 0.2746, -9.5223, 0.0016, 0.0073, 0.0035, 0.0342, 0.0788, -0.9570, 0.0461, 0.0600, -0.0100, 838, 118316, 0.1830, 0.1830, -1.0915, 0.0000
10.5890, -0.4511, 0.2746, -9.5223, 0.0016, 0.0073, 0.0035, 0.0356, 0.0807, -0.9579, 0.0465, 0.0582, -0.0084, 839, 118316, 0.1897, 0.1897, -1.0948, 0.0000
10.6090, -0.4511, 0.2746, -9.5223, 0.0016, 0.0073, 0.0035, 0.0373, 0.0826, -0.9590, 0.0467, 0.0566, -0.0075, 840, 118316, 0.1963, 0.1963, -1.0982, 0.0000
10.6290, -0.4511, 0.2746, -9.5223, 0.0016, 0.0073, 0.0035, 0.0391, 0.0847, -0.9601, 0.0468, 0.0558, -0.0062, 841, 118316, 0.2030, 0.2030, -1.1015, 0.0000
10.6500, -0.4511, 0.2746, -9.5223, 0.0016, 0.0073, 0.0035, 0.0410, 0.0869, -0.9612, 0.0470, 0.0544, -0.0053, 842, 118316, 0.2097, 0.2097, -1.1048, 0.0000
10.6690, -0.4511, 0.2746, -9.5223, 0.0016, 0.0073, 0.0035, 0.0433, 0.0894, -0.9625, 0.0473, 0.0538, -0.0047, 843, 118316, 0.2167, 0.2167, -1.1083, 0.0000
10.6890, -0.4511, 0.2746, -9.5223, 0.0016, 0.0073, 0.0035, 0.0455, 0.0920, -0.9637, 0.0475, 0.0534, -0.0041, 844, 118316, 0.2230, 0.2230, -1.1115, 0.0000
10.7090, -0.4511, 0.2746, -9.5223, 0.0016, 0.0073, 0.0035, 0.0480, 0.0947, -0.9651, 0.0479, 0.0534, -0.0038, 845, 118316, 0.2297, 0.2297, -1.1148, 0.0000
10.7290, -0.4511, 0.2746, -9.5223, 0.0016, 0.0073, 0.0035, 0.0507, 0.0977, -0.9664, 0.0480, 0.0528, -0.0037, 846, 118316, 0.2363, 0.2363, -1.1182, 0.0000
10.7490, -0.4511, 0.2746, -9.5223, 0.0016, 0.0073, 0.0035, 0.0535, 0.1007, -0.9680, 0.0481, 0.0524, -0.0035, 847, 118316, 0.2430, 0.2430, -1.1215, 0.0000
10.7690, -0.4511, 0.2746, -9.5223, 0.0016, 0.0073, 0.0035, 0.0566, 0.1040, -0.9694, 0.0485, 0.0519, -0.0036, 848, 118316, 0.2497, 0.2497, -1.1248, 0.0000
10.7890, -0.4511, 0.2746, -9.5223, 0.0016, 0.0073, 0.0035, 0.0599, 0.1074, -0.9710, 0.0486, 0.0518, -0.0040, 849, 118316, 0.2563, 0.2563, -1.1282, 0.0000
10.8090, -0.4511, 0.2746, -9.5223, 0.0016, 0.0073, 0.0035, 0.0633, 0.1111, -0.9727, 0.0489, 0.0519, -0.0037, 850, 118316, 0.2630, 0.2630, -1.1315, 0.0000
10.8290, -0.4511, 0.2746, -9.5223, 0.0016, 0.0073, 0.0035, 0.0667, 0.1148, -0.9742, 0.0492, 0.0521, -0.0040, 851, 118316, 0.2697, 0.2697, -1.1348, 0.0000
10.8500, -0.4511, 0.2746, -9.5223, 0.0016, 0.0073, 0.0035, 0.0705, 0.1188, -0.9760, 0.0493, 0.0528, -0.0042, 852, 118316, 0.2763, 0.2763, -1.1382, 0.0000
10.8690, -0.4511, 0.2746, -9.5223, 0.0016, 0.0073, 0.0035, 0.0744, 0.1229, -0.9777, 0.0496, 0.0535, -0.0051, 853, 118316, 0.2833, 0.2833, -1.1417, 0.0000
10.8890, -0.4511, 0.2746, -9.5223, 0.0016, 0.0073, 0.0035, 0.0786, 0.1272, -0.9794, 0.0498, 0.0542, -0.0064, 854, 118316, 0.2897, 0.2897, -1.1448, 0.0000
10.9090, -0.4511, 0.2746, -9.5223, 0.0016, 0.0073, 0.0035, 0.0828, 0.1315, -0.9813, 0.0501, 0.0554, -0.0074, 855, 118316, 0.2963, 0.2963, -1.1482, 0.0000
10.9290, -0.4511, 0.2746, -9.5223, 0.0016, 0.0073, 0.0035, 0.0872, 0.1361, -0.9830, 0.0503, 0.0567, -0.0082, 856, 118316, 0.3030, 0.3030, -1.1515, 0.0000
10.9490, -0.4511, 0.2746, -9.5223, 0.0016, 0.0073, 0.0035, 0.0917, 0.1408, -0.9851, 0.0505, 0.0579, -0.0095, 857, 118316, 0.3097, 0.3097, -1.1548, 0.0000
10.9690, -0.4511, 0.2746, -9.5223, 0.0016, 0.0073, 0.0035, 0.0964, 0.1457, -0.9870, 0.0503, 0.0586, -0.0111, 858, 118316, 0.3163, 0.3163, -1.1582, 0.0000
10.9890, -0.4511, 0.2746, -9.5223, 0.0016, 0.0073, 0.0035, 0.1013, 0.1506, -0.9890, 0.0505, 0.0598, -0.0123, 859, 118316, 0.3230, 0.3230, -1.1615, 0.0000
11.0090, -0.4511, 0.2746, -9.5223, 0.0016, 0.0073, 0.0035, 0.1062, 0.1557, -0.9910, 0.0505, 0.0611, -0.0135, 860, 118316, 0.3297, 0.3297, -1.1648, 0.0000
11.0290, -0.4511, 0.2746, -9.5223, 0.0016, 0.0073, 0.0035, 0.1114, 0.1610, -0.9932, 0.0502, 0.0622, -0.0149, 861, 118316, 0.3363, 0.3363, -1.1682, 0.0000
11.0500, -0.4511, 0.2746, -9.5223, 0.0016, 0.0073, 0.0035, 0.1166, 0.1662, -0.9953, 0.0503, 0.0635, -0.0162, 862, 118316, 0.3430, 0.3430, -1.1715, 0.0000
11.0690, -0.4511, 0.2746, -9.5223, 0.0016, 0.0073, 0.0035, 0.1220, 0.1717, -0.9974, 0.0503, 0.0646, -0.0176, 863, 118316, 0.3500, 0.3500, -1.1750, 0.0000
11.0890, -0.4511, 0.2746, -9.5223, 0.0016, 0.0073, 0.0035, 0.1275, 0.1773, -0.9997, 0.0500, 0.0660, -0.0190, 864, 118316, 0.3563, 0.3563, -1.1782, 0.0000
11.1090, -0.4511, 0.2746, -9.5223, 0.0016, 0.0073, 0.0035, 0.1330, 0.1829, -1.0019, 0.0498, 0.0678, -0.0199, 865, 118316, 0.3630, 0.3630, -1.1815, 0.0000
11.1290, -0.4511, 0.2746, -9.5223, 0.0016, 0.0073, 0.0035, 0.1387, 0.1887, -1.0042, 0.0496, 0.0696, -0.0211, 866, 118316, 0.3697, 0.3697, -1.1848, 0.0000
11.1490, -0.4511, 0.2746, -9.5223, 0.0016, 0.0073, 0.0035, 0.1445, 0.1945, -1.0065, 0.0493, 0.0713, -0.0223, 867, 118316, 0.3763, 0.3763, -1.1882, 0.0000
11.1690, -0.4511, 0.2746, -9.5223, 0.0016, 0.0073, 0.0035, 0.1504, 0.2005, -1.0087, 0.0492, 0.0728, -0.0231, 868, 118316, 0.3830, 0.3830, -1.1915, 0.0000
11.1890, -0.4511, 0.2746, -9.5223, 0.0016, 0.0073, 0.0035, 0.1563, 0.2065, -1.0111, 0.0489, 0.0743, -0.0243, 869, 118316, 0.3897, 0.3897, -1.1948, 0.0000
11.2090, -0.4511, 0.2746, -9.5223, 0.0016, 0.0073, 0.0035, 0.1623, 0.2125, -1.0134, 0.0490, 0.0759, -0.0257, 870, 118316, 0.3963, 0.3963, -1.1982, 0.0000
11.2290, -0.4511, 0.2746, -9.5223, 0.0016, 0.0073, 0.0035, 0.1684, 0.2186, -1.0158, 0.0485, 0.0778, -0.0274, 871, 118316, 0.4030, 0.4030, -1.2015, 0.0000
11.2500, -0.4511, 0.2746, -9.5223, 0.0016, 0.0073, 0.0035, 0.1745, 0.2247, -1.0181, 0.0484, 0.0791, -0.0292, 872, 118316, 0.4097, 0.4097, -1.2048, 0.0000
11.2690, -0.4511, 0.2746, -9.5223, 0.0016, 0.0073, 0.0035, 0.1807, 0.2309, -1.0205, 0.0480, 0.0810, -0.0305, 873, 118316, 0.4167, 0.4167, -1.2083, 0.0000
11.2890, -0.4511, 0.2746, -9.5223, 0.0016, 0.0073, 0.0035, 0.1869, 0.2371, -1.0229, 0.0474, 0.0823, -0.0318, 874, 118316, 0.4230, 0.4230, -1.2115, 0.0000
11.3090, -0.4511, 0.2746, -9.5223, 0.0016, 0.0073, 0.0035, 0.1933, 0.2435, -1.0253, 0.0472, 0.0835, -0.0337, 875, 118316, 0.4297, 0.4297, -1.2148, 0.0000
11.3290, -0.4511, 0.2746, -9.5223, 0.0016, 0.0073, 0.0035, 0.1997, 0.2499, -1.0278, 0.0467, 0.0843, -0.0344, 876, 118316, 0.4363, 0.4363, -1.2182, 0.0000
11.3500, -0.4511, 0.2746, -9.5223, 0.0016, 0.0073, 0.0035, 0.2059, 0.2561, -1.0302, 0.0467, 0.0857, -0.0361, 877, 118316, 0.4430, 0.4430, -1.2215, 0.0000
11.3690, -0.4511, 0.2746, -9.5223, 0.0016, 0.0073, 0.0035, 0.2123, 0.2625, -1.0328, 0.0464, 0.0872, -0.0374, 878, 118316, 0.4500, 0.4500, -1.2250, 0.0000
11.3890, -0.4511, 0.2746, -9.5223, 0.0016, 0.0073, 0.0035, 0.2186, 0.2688, -1.0352, 0.0460, 0.0884, -0.0386, 879, 118316, 0.4563, 0.4563, -1.2282, 0.0000
11.4090, -0.4511, 0.2746, -9.5223, 0.0016, 0.0073, 0.0035, 0.2250, 0.2751, -1.0377, 0.0455, 0.0895, -0.0398, 880, 118316, 0.4630, 0.4630, -1.2315, 0.0000
11.4290, -0.4511, 0.2746, -9.5223, 0.0016, 0.0073, 0.0035, 0.2315, 0.2815, -1.0403, 0.0452, 0.0906, -0.0410, 881, 118316, 0.4697, 0.4697, -1.2348, 0.0000
11.4500, -0.4511, 0.2746, -9.5223, 0.0016, 0.0073, 0.0035, 0.2378, 0.2879, -1.0428, 0.0445, 0.0917, -0.0419, 882, 118316, 0.4763, 0.4763, -1.2382, 0.0000
11.4690, -0.4511, 0.2746, -9.5223, 0.0016, 0.0073, 0.0035, 0.2443, 0.2942, -1.0454, 0.0443, 0.0921, -0.0430, 883, 118316, 0.4833, 0.4833, -1.2417, 0.0000
11.4890, -0.4511, 0.2746, -9.5223, 0.0016, 0.0073, 0.0035, 0.2507, 0.3006, -1.0480, 0.0437, 0.0929, -0.0439, 884, 118316, 0.4897, 0.4897, -1.2448, 0.0000
11.5090, -0.4511, 0.2746, -9.5223, 0.0016, 0.0073, 0.0035, 0.2572, 0.3069, -1.0506, 0.0430, 0.0931, -0.0442, 885, 118316, 0.4963, 0.4963, -1.2482, 0.0000
11.5290, -0.4511, 0.2746, -9.5223, 0.0016, 0.0073, 0.0035, 0.2636, 0.3132, -1.0533, 0.0430, 0.0967, -0.0481, 886, 118316, 0.5030, 0.5030, -1.2515, 0.0000
11.5490, -0.4511, 0.2746, -9.5223, 0.0016, 0.0073, 0.0035, 0.2697, 0.3192, -1.0558, 0.0429, 0.1034, -0.0552, 887, 118316, 0.5097, 0.5097, -1.2548, 0.0000
11.5690, -0.4511, 0.2746, -9.5223, 0.0016, 0.0073, 0.0035, 0.2759, 0.3253, -1.0587, 0.0428, 0.1076, -0.0589, 888, 118316, 0.5163, 0.5163, -1.2582, 0.0000
11.5890, -0.4511, 0.2746, -9.5223, 0.0016, 0.0073, 0.0035, 0.2822, 0.3313, -1.0612, 0.0424, 0.1086, -0.0591, 889, 118316, 0.5230, 0.5230, -1.2615, 0.0000
11.6090, -0.4511, 0.2746, -9.5223, 0.0016, 0.0073, 0.0035, 0.2885, 0.3375, -1.0639, 0.0418, 0.1076, -0.0583, 890, 118316, 0.5297, 0.5297, -1.2648, 0.0000
11.6290, -0.4511, 0.2746, -9.5223, 0.0016, 0.0073, 0.0035, 0.2947, 0.3436, -1.0666, 0.0414, 0.1067, -0.0566, 891, 118316, 0.5363, 0.5363, -1.2682, 0.0000
11.6500, -0.4511, 0.2746, -9.5223, 0.0016, 0.0073, 0.0035, 0.3011, 0.3495, -1.0691, 0.0408, 0.1052, -0.0552, 892, 118316, 0.5430, 0.5430, -1.2715, 0.0000
11.6690, -0.4511, 0.2746, -9.5223, 0.0016, 0.0073, 0.0035, 0.3073, 0.3555, -1.0717, 0.0401, 0.1041, -0.0541, 893, 118316, 0.5500, 0.5500, -1.2750, 0.0000
11.6890, -0.4511, 0.2746, -9.5223, 0.0016, 0.0073, 0.0035, 0.3134, 0.3614, -1.0742, 0.0397, 0.1026, -0.0530, 894, 118316, 0.5563, 0.5563, -1.2782, 0.0000
11.7090, -0.4511, 0.2746, -9.5223, 0.0016, 0.0073, 0.0035, 0.3195, 0.3672, -1.0767, 0.0393, 0.1014, -0.0521, 895, 118316, 0.5630, 0.5630, -1.2815, 0.0000
11.7290, -0.4511, 0.2746, -9.5223, 0.0016, 0.0073, 0.0035, 0.3255, 0.3730, -1.0792, 0.0387, 0.1008, -0.0514, 896, 118316, 0.5697, 0.5697, -1.2848, 0.0000
11.7500, -0.4511, 0.2746, -9.5223, 0.0016, 0.0073, 0.0035, 0.3315, 0.3787, -1.0816, 0.0383, 0.0995, -0.0510, 897, 118316, 0.5763, 0.5763, -1.2882, 0.0000
11.7690, -0.4511, 0.2746, -9.5223, 0.0016, 0.0073, 0.0035, 0.3375, 0.3844, -1.0840, 0.0378, 0.0990, -0.0503, 898, 118316, 0.5833, 0.5833, -1.2917, 0.0000
11.7890, -0.4511, 0.2746, -9.5223, 0.0016, 0.0073, 0.0035, 0.3434, 0.3901, -1.0864, 0.0372, 0.0983, -0.0495, 899, 118316, 0.5897, 0.5897, -1.2948, 0.0000
11.8090, -0.4511, 0.2746, -9.5223, 0.0016, 0.0073, 0.0035, 0.3494, 0.3957, -1.0889, 0.0369, 0.0978, -0.0484, 900, 118316, 0.5963, 0.5963, -1.2982, 0.0000
11.8290, -0.4511, 0.2746, -9.5223, 0.0016, 0.0073, 0.0035, 0.3552, 0.4013, -1.0912, 0.0365, 0.0974, -0.0475, 901, 118316, 0.6030, 0.6030, -1.3015, 0.0000
11.8500, -0.4511, 0.2746, -9.5223, 0.0016, 0.0073, 0.0035, 0.3612, 0.4068, -1.0937, 0.0361, 0.0964, -0.0465, 902, 118316, 0.6097, 0.6097, -1.3048, 0.0000
11.8690, -0.4511, 0.2746, -9.5223, 0.0016, 0.0073, 0.0035, 0.3670, 0.4124, -1.0961, 0.0357, 0.0956, -0.0454, 903, 118316, 0.6167, 0.6167, -1.3083, 0.0000
11.8890, -0.4511, 0.2746, -9.5223, 0.0016, 0.0073, 0.0035, 0.3730, 0.4179, -1.0986, 0.0352, 0.0942, -0.0448, 904, 118316, 0.6230, 0.6230, -1.3115, 0.0000
11.9090, -0.4511, 0.2746, -9.5223, 0.0016, 0.0073, 0.0035, 0.3789, 0.4235, -1.1011, 0.0348, 0.0930, -0.0442, 905, 118316, 0.6297, 0.6297, -1.3148, 0.0000
11.9290, -0.4511, 0.2746, -9.5223, 0.0016, 0.0073, 0.0035, 0.3847, 0.4289, -1.1035, 0.0346, 0.0914, -0.0434, 906, 118316, 0.6363, 0.6363, -1.3182, 0.0000
11.9490, -0.4511, 0.2746, -9.5223, 0.0016, 0.0073, 0.0035, 0.3907, 0.4345, -1.1062, 0.0340, 0.0904, -0.0419, 907, 118316, 0.6430, 0.6430, -1.3215, 0.0000
11.9690, -0.4511, 0.2746, -9.5223, 0.0016, 0.0073, 0.0035, 0.3965, 0.4400, -1.1086, 0.0338, 0.0897, -0.0408, 908, 118316, 0.6497, 0.6497, -1.3248, 0.0000
11.9890, -0.4511, 0.2746, -9.5223, 0.0016, 0.0073, 0.0035, 0.4025, 0.4456, -1.1113, 0.0337, 0.0889, -0.0397, 909, 118316, 0.6563, 0.6563, -1.3282, 0.0000
12.0090, -0.4511, 0.2746, -9.5223, 0.0016, 0.0073, 0.0035, 0.4084, 0.4512, -1.1138, 0.0332, 0.0886, -0.0382, 910, 118316, 0.6630, 0.6630, -1.3315, 0.0000
12.0290, -0.4511, 0.2746, -9.5223, 0.0016, 0.0073, 0.0035, 0.4144, 0.4567, -1.1164, 0.0330, 0.0876, -0.0368, 911, 118316, 0.6697, 0.6697, -1.3348, 0.0000
12.0490, -0.4511, 0.2746, -9.5223, 0.0016, 0.0073, 0.0035, 0.4204, 0.4623, -1.1191, 0.0329, 0.0875, -0.0359, 912, 118316, 0.6763, 0.6763, -1.3382, 0.0000
12.0690, -0.4511, 0.2746, -9.5223, 0.0016, 0.0073, 0.0035, 0.4263, 0.4679, -1.1216, 0.0327, 0.0866, -0.0353, 913, 118316, 0.6830, 0.6830, -1.3415, 0.0000
12.0890, -0.4511, 0.2746, -9.5223, 0.0016, 0.0073, 0.0035, 0.4325, 0.4736, -1.1244, 0.0325, 0.0858, -0.0345, 914, 118316, 0.6897, 0.6897, -1.3448, 0.0000
12.1090, -0.4511, 0.2746, -9.5223, 0.0016, 0.0073, 0.0035, 0.4384, 0.4791, -1.1270, 0.0324, 0.0853, -0.0345, 915, 118316, 0.6963, 0.6963, -1.3482, 0.0000
12.1290, -0.4511, 0.2746, -9.5223, 0.0016, 0.0073, 0.0035, 0.4446, 0.4848, -1.1298, 0.0322, 0.0843, -0.0338, 916, 118316, 0.7030, 0.7030, -1.3515, 0.0000
12.1500, -0.4511, 0.2746, -9.5223, 0.0016, 0.0073, 0.0035, 0.4507, 0.4906, -1.1326, 0.0320, 0.0836, -0.0329, 917, 118316, 0.7097, 0.7097, -1.3548, 0.0000
12.1690, -0.4511, 0.2746, -9.5223, 0.0016, 0.0073, 0.0035, 0.4568, 0.4963, -1.1353, 0.0318, 0.0831, -0.0320, 918, 118316, 0.7167, 0.7167, -1.3583, 0.0000
12.1910, -0.4511, 0.2746, -9.5223, 0.0016, 0.0073, 0.0035, 0.4630, 0.5021, -1.1383, 0.0318, 0.0826, -0.0318, 919, 118316, 0.7230, 0.7230, -1.3615, 0.0000
12.2110, -0.4511, 0.2746, -9.5223, 0.0016, 0.0073, 0.0035, 0.4692, 0.5079, -1.1410, 0.0314, 0.0824, -0.0313, 920, 118316, 0.7303, 0.7303, -1.3652, 0.0000
12.2310, -0.4511, 0.2746, -9.5223, 0.0016, 0.0073, 0.0035, 0.4756, 0.5138, -1.1439, 0.0314, 0.0820, -0.0310, 921, 118316, 0.7370, 0.7370, -1.3685, 0.0000
12.2510, -0.4511, 0.2746, -9.5223, 0.0016, 0.0073, 0.0035, 0.4818, 0.5197, -1.1467, 0.0314, 0.0819, -0.0305, 922, 118316, 0.7437, 0.7437, -1.3718, 0.0000
12.2710, -0.4511, 0.2746, -9.5223, 0.0016, 0.0073, 0.0035, 0.4881, 0.5256, -1.1497, 0.0309, 0.0818, -0.0304, 923, 118316, 0.7503, 0.7503, -1.3752, 0.0000
12.2910, -0.4511, 0.2746, -9.5223, 0.0016, 0.0073, 0.0035, 0.4945, 0.5316, -1.1526, 0.0311, 0.0816, -0.0304, 924, 118316, 0.7570, 0.7570, -1.3785, 0.0000
12.3110, -0.4511, 0.2746, -9.5223, 0.0016, 0.0073, 0.0035, 0.5011, 0.5376, -1.1556, 0.0310, 0.0813, -0.0309, 925, 118316, 0.7637, 0.7637, -1.3818, 0.0000
12.3310, -0.4511, 0.2746, -9.5223, 0.0016, 0.0073, 0.0035, 0.5076, 0.5437, -1.1587, 0.0305, 0.0816, -0.0308, 926, 118316, 0.7703, 0.7703, -1.3852, 0.0000
12.3510, -0.4511, 0.2746, -9.5223, 0.0016, 0.0073, 0.0035, 0.5140, 0.5498, -1.1616, 0.0307, 0.0812, -0.0307, 927, 118316, 0.7770, 0.7770, -1.3885, 0.0000
12.3710, -0.4511, 0.2746, -9.5223, 0.0016, 0.0073, 0.0035, 0.5207, 0.5559, -1.1648, 0.0306, 0.0813, -0.0312, 928, 118316, 0.7837, 0.7837, -1.3918, 0.0000
12.3910, -0.4511, 0.2746, -9.5223, 0.0016, 0.0073, 0.0035, 0.5273, 0.5620, -1.1679, 0.0303, 0.0811, -0.0312, 929, 118316, 0.7903, 0.7903, -1.3952, 0.0000
12.4110, -0.4511, 0.2746, -9.5223, 0.0016, 0.0073, 0.0035, 0.5339, 0.5683, -1.1709, 0.0302, 0.0812, -0.0313, 930, 118316, 0.7970, 0.7970, -1.3985, 0.0000
12.4310, -0.4511, 0.2746, -9.5223, 0.0016, 0.0073, 0.0035, 0.5407, 0.5746, -1.1742, 0.0301, 0.0820, -0.0311, 931, 118316, 0.8037, 0.8037, -1.4018, 0.0000
12.4510, -0.4511, 0.2746, -9.5223, 0.0016, 0.0073, 0.0035, 0.5473, 0.5808, -1.1772, 0.0300, 0.0828, -0.0313, 932, 118316, 0.8103, 0.8103, -1.4052, 0.0000
12.4710, -0.4511, 0.2746, -9.5223, 0.0016, 0.0073, 0.0035, 0.5541, 0.5871, -1.1804, 0.0300, 0.0833, -0.0319, 933, 118316, 0.8170, 0.8170, -1.4085, 0.0000
12.4910, -0.4511, 0.2746, -9.5223, 0.0016, 0.0073, 0.0035, 0.5609, 0.5935, -1.1836, 0.0297, 0.0835, -0.0322, 934, 118316, 0.8237, 0.8237, -1.4118, 0.0000
12.5110, -0.4511, 0.2746, -9.5223, 0.0016, 0.0073, 0.0035, 0.5678, 0.5999, -1.1869, 0.0298, 0.0842, -0.0328, 935, 118316, 0.8303, 0.8303, -1.4152, 0.0000
12.5310, -0.4511, 0.2746, -9.5223, 0.0016, 0.0073, 0.0035, 0.5747, 0.6062, -1.1902, 0.0296, 0.0846, -0.0335, 936, 118316, 0.8370, 0.8370, -1.4185, 0.0000
12.5510, -0.4511, 0.2746, -9.5223, 0.0016, 0.0073, 0.0035, 0.5815, 0.6126, -1.1933, 0.0293, 0.0855, -0.0342, 937, 118316, 0.8437, 0.8437, -1.4218, 0.0000
12.5710, -0.4511, 0.2746, -9.5223, 0.0016, 0.0073, 0.0035, 0.5884, 0.6191, -1.1968, 0.0289, 0.0863, -0.0351, 938, 118316, 0.8503, 0.8503, -1.4252, 0.0000
12.5910, -0.4511, 0.2746, -9.5223, 0.0016, 0.0073, 0.0035, 0.5953, 0.6256, -1.2000, 0.0287, 0.0868, -0.0356, 939, 118316, 0.8570, 0.8570, -1.4285, 0.0000
12.6110, -0.4511, 0.2746, -9.5223, 0.0016, 0.0073, 0.0035, 0.6023, 0.6320, -1.2034, 0.0286, 0.0874, -0.0366, 940, 118316, 0.8637, 0.8637, -1.4318, 0.0000
12.6310, -0.4511, 0.2746, -9.5223, 0.0016, 0.0073, 0.0035, 0.6092, 0.6385, -1.2067, 0.0283, 0.0880, -0.0369, 941, 118316, 0.8703, 0.8703, -1.4352, 0.0000
12.6510, -0.4511, 0.2746, -9.5223, 0.0016, 0.0073, 0.0035, 0.6162, 0.6450, -1.2101, 0.0280, 0.0885, -0.0373, 942, 118316, 0.8770, 0.8770, -1.4385, 0.0000
12.6710, -0.4511, 0.2746, -9.5223, 0.0016, 0.0073, 0.0035, 0.6231, 0.6515, -1.2136, 0.0279, 0.0891, -0.0384, 943, 118316, 0.8837, 0.8837, -1.4418, 0.0000
12.6910, -0.4511, 0.2746, -9.5223, 0.0016, 0.0073, 0.0035, 0.6300, 0.6580, -1.2168, 0.0272, 0.0892, -0.0390, 944, 118316, 0.8903, 0.8903, -1.4452, 0.0000
12.7110, -0.4511, 0.2746, -9.5223, 0.0016, 0.0073, 0.0035, 0.6371, 0.6646, -1.2204, 0.0270, 0.0897, -0.0401, 945, 118316, 0.8970, 0.8970, -1.4485, 0.0000
12.7310, -0.4511, 0.2746, -9.5223, 0.0016, 0.0073, 0.0035, 0.6441, 0.6711, -1.2237, 0.0269, 0.0896, -0.0405, 946, 118316, 0.9037, 0.9037, -1.4518, 0.0000
12.7510, -0.4511, 0.2746, -9.5223, 0.0016, 0.0073, 0.0035, 0.6512, 0.6776, -1.2271, 0.0263, 0.0898, -0.0407, 947, 118316, 0.9103, 0.9103, -1.4552, 0.0000
12.7710, -0.4511, 0.2746, -9.5223, 0.0016, 0.0073, 0.0035, 0.6583, 0.6842, -1.2306, 0.0259, 0.0893, -0.0418, 948, 118316, 0.9170, 0.9170, -1.4585, 0.0000
12.7910, -0.4511, 0.2746, -9.5223, 0.0016, 0.0073, 0.0035, 0.6653, 0.6908, -1.2338, 0.0255, 0.0890, -0.0429, 949, 118316, 0.9237, 0.9237, -1.4618, 0.0000
12.8110, -0.4511, 0.2746, -9.5223, 0.0016, 0.0073, 0.0035, 0.6725, 0.6972, -1.2374, 0.0255, 0.0899, -0.0428, 950, 118316, 0.9303, 0.9303, -1.4652, 0.0000
12.8310, -0.4511, 0.2746, -9.5223, 0.0016, 0.0073, 0.0035, 0.6795, 0.7038, -1.2407, 0.0249, 0.0901, -0.0433, 951, 118316, 0.9370, 0.9370, -1.4685, 0.0000
12.8510, -0.4511, 0.2746, -9.5223, 0.0016, 0.0073, 0.0035, 0.6865, 0.7102, -1.2442, 0.0247, 0.0907, -0.0445, 952, 118316, 0.9437, 0.9437, -1.4718, 0.0000
12.8710, -0.4511, 0.2746, -9.5223, 0.0016, 0.0073, 0.0035, 0.6935, 0.7167, -1.2474, 0.0243, 0.0911, -0.0451, 953, 118316, 0.9503, 0.9503, -1.4752, 0.0000
12.8910, -0.4511, 0.2746, -9.5223, 0.0016, 0.0073, 0.0035, 0.7006, 0.7231, -1.2508, 0.0242, 0.0918, -0.0463, 954, 118316, 0.9570, 0.9570, -1.4785, 0.0000
12.9110, -0.4511, 0.2746, -9.5223, 0.0016, 0.0073, 0.0035, 0.7077, 0.7296, -1.2542, 0.0239, 0.0926, -0.0465, 955, 118316, 0.9637, 0.9637, -1.4818, 0.0000
12.9310, -0.4511, 0.2746, -9.5223, 0.0016, 0.0073, 0.0035, 0.7146, 0.7360, -1.2575, 0.0236, 0.0930, -0.0471, 956, 118316, 0.9703, 0.9703, -1.4852, 0.0000
12.9510, -0.4511, 0.2746, -9.5223, 0.0016, 0.0073, 0.0035, 0.7218, 0.7424, -1.2608, 0.0231, 0.0934, -0.0476, 957, 118316, 0.9770, 0.9770, -1.4885, 0.0000
12.9710, -0.4511, 0.2746, -9.5223, 0.0016, 0.0073, 0.0035, 0.7288, 0.7488, -1.2641, 0.0227, 0.0940, -0.0471, 958, 118316, 0.9837, 0.9837, -1.4918, 0.0000
12.9910, -0.4511, 0.2746, -9.5223, 0.0016, 0.0073, 0.0035, 0.7358, 0.7552, -1.2674, 0.0224, 0.0943, -0.0470, 959, 118316, 0.9903, 0.9903, -1.4952, 0.0000
13.0110, -0.4511, 0.2746, -9.5223, 0.0016, 0.0073, 0.0035, 0.7428, 0.7614, -1.2706, 0.0217, 0.0949, -0.0471, 960, 118316, 0.9970, 0.9970, -1.4985, 0.0000
13.0310, -0.4511, 0.2746, -9.5223, 0.0016, 0.0073, 0.0035, 0.7498, 0.7677, -1.2738, 0.0217, 0.0947, -0.0473, 961, 118316, 1.0000, 1.0000, -1.5000, 0.0000
13.0510, -0.4511, 0.2746, -9.5223, 0.0016, 0.0073, 0.0035, 0.7569, 0.7739, -1.2772, 0.0213, 0.0948, -0.0479, 962, 118316, 1.0000, 1.0000, -1.5000, 0.0000
13.0710, -0.4511, 0.2746, -9.5223, 0.0016, 0.0073, 0.0035, 0.7637, 0.7801, -1.2803, 0.0211, 0.0992, -0.0510, 963, 118316, 1.0000, 1.0000, -1.5000, 0.0000
13.0910, -0.4511, 0.2746, -9.5223, 0.0016, 0.0073, 0.0035, 0.7705, 0.7861, -1.2837, 0.0213, 0.1043, -0.0555, 964, 118316, 1.0000, 1.0000, -1.5000, 0.0000
13.1110, -0.4511, 0.2746, -9.5223, 0.0016, 0.0073, 0.0035, 0.7774, 0.7921, -1.2868, 0.0211, 0.1067, -0.0553, 965, 118316, 1.0000, 1.0000, -1.5000, 0.0000
13.1310, -0.4511, 0.2746, -9.5223, 0.0016, 0.0073, 0.0035, 0.7843, 0.7982, -1.2899, 0.0207, 0.1072, -0.0536, 966, 118316, 1.0000, 1.0000, -1.5000, 0.0000
13.1510, -0.4511, 0.2746, -9.5223, 0.0016, 0.0073, 0.0035, 0.7911, 0.8043, -1.2931, 0.0206, 0.1065, -0.0519, 967, 118316, 1.0000, 1.0000, -1.5000, 0.0000
13.1710, -0.4511, 0.2746, -9.5223, 0.0016, 0.0073, 0.0035, 0.7977, 0.8103, -1.2961, 0.0206, 0.1061, -0.0502, 968, 118316, 1.0000, 1.0000, -1.5000, 0.0000
13.1910, -0.4511, 0.2746, -9.5223, 0.0016, 0.0073, 0.0035, 0.8046, 0.8163, -1.2993, 0.0201, 0.1065, -0.0498, 969, 118316, 1.0000, 1.0000, -1.5000, 0.0000
13.2110, -0.4511, 0.2746, -9.5223, 0.0016, 0.0073, 0.0035, 0.8113, 0.8222, -1.3023, 0.0203, 0.1076, -0.0490, 970, 118316, 1.0000, 1.0000, -1.5000, 0.0000
13.2310, -0.4511, 0.2746, -9.5223, 0.0016, 0.0073, 0.0035, 0.8178, 0.8280, -1.3051, 0.0198, 0.1081, -0.0493, 971, 118316, 1.0000, 1.0000, -1.5000, 0.0000
13.2510, -0.4511, 0.2746, -9.5223, 0.0016, 0.0073, 0.0035, 0.8243, 0.8339, -1.3080, 0.0192, 0.1093, -0.0498, 972, 118316, 1.0000, 1.0000, -1.5000, 0.0000
13.2710, -0.4511, 0.2746, -9.5223, 0.0016, 0.0073, 0.0035, 0.8307, 0.8395, -1.3107, 0.0189, 0.1105, -0.0505, 973, 118316, 1.0000, 1.0000, -1.5000, 0.0000
13.2910, -0.4511, 0.2746, -9.5223, 0.0016, 0.0073, 0.0035, 0.8371, 0.8452, -1.3135, 0.0187, 0.1116, -0.0520, 974, 118316, 1.0000, 1.0000, -1.5000, 0.0000
13.3110, -0.4511, 0.2746, -9.5223, 0.0016, 0.0073, 0.0035, 0.8434, 0.8507, -1.3162, 0.0185, 0.1128, -0.0532, 975, 118316, 1.0000, 1.0000, -1.5000, 0.0000
13.3310, -0.4511, 0.2746, -9.5223, 0.0016, 0.0073, 0.0035, 0.8497, 0.8563, -1.3187, 0.0181, 0.1137, -0.0549, 976, 118316, 1.0000, 1.0000, -1.5000, 0.0000
13.3510, -0.4511, 0.2746, -9.5223, 0.0016, 0.0073, 0.0035, 0.8556, 0.8617, -1.3214, 0.0179, 0.1154, -0.0553, 977, 118316, 1.0000, 1.0000, -1.5000, 0.0000
13.3710, -0.4511, 0.2746, -9.5223, 0.0016, 0.0073, 0.0035, 0.8617, 0.8672, -1.3238, 0.0176, 0.1166, -0.0572, 978, 118316, 1.0000, 1.0000, -1.5000, 0.0000
13.3910, -0.4511, 0.2746, -9.5223, 0.0016, 0.0073, 0.0035, 0.8677, 0.8725, -1.3264, 0.0174, 0.1188, -0.0586, 979, 118316, 1.0000, 1.0000, -1.5000, 0.0000
13.4110, -0.4511, 0.2746, -9.5223, 0.0016, 0.0073, 0.0035, 0.8737, 0.8778, -1.3288, 0.0173, 0.1200, -0.0594, 980, 118316, 1.0000, 1.0000, -1.5000, 0.0000
13.4310, -0.4511, 0.2746, -9.5223, 0.0016, 0.0073, 0.0035, 0.8794, 0.8829, -1.3312, 0.0167, 0.1203, -0.0605, 981, 118316, 1.0000, 1.0000, -1.5000, 0.0000
13.4510, -0.4511, 0.2746, -9.5223, 0.0016, 0.0073, 0.0035, 0.8850, 0.8881, -1.3335, 0.0170, 0.1236, -0.0631, 982, 118316, 1.0000, 1.0000, -1.5000, 0.0000
13.4710, -0.4511, 0.2746, -9.5223, 0.0016, 0.0073, 0.0035, 0.8904, 0.8929, -1.3357, 0.0173, 0.1317, -0.0723, 983, 118316, 1.0000, 1.0000, -1.5000, 0.0000
13.4910, -0.4511, 0.2746, -9.5223, 0.0016, 0.0073, 0.0035, 0.8953, 0.8975, -1.3375, 0.0184, 0.1454, -0.0853, 984, 118316, 1.0000, 1.0000, -1.5000, 0.0000
13.5110, -0.4511, 0.2746, -9.5223, 0.0016, 0.0073, 0.0035, 0.9003, 0.9019, -1.3394, 0.0186, 0.1565, -0.0949, 985, 118316, 1.0000, 1.0000, -1.5000, 0.0000
13.5310, -0.4511, 0.2746, -9.5223, 0.0016, 0.0073, 0.0035, 0.9051, 0.9063, -1.3414, 0.0187, 0.1604, -0.0964, 986, 118316, 1.0000, 1.0000, -1.5000, 0.0000
13.5510, -0.4511, 0.2746, -9.5223, 0.0016, 0.0073, 0.0035, 0.9101, 0.9109, -1.3435, 0.0182, 0.1581, -0.0937, 987, 118316, 1.0000, 1.0000, -1.5000, 0.0000
13.5710, -0.4511, 0.2746, -9.5223, 0.0016, 0.0073, 0.0035, 0.9149, 0.9152, -1.3456, 0.0177, 0.1536, -0.0898, 988, 118316, 1.0000, 1.0000, -1.5000, 0.0000
13.5910, -0.4511, 0.2746, -9.5223, 0.0016, 0.0073, 0.0035, 0.9193, 0.9194, -1.3478, 0.0172, 0.1494, -0.0860, 989, 118316, 1.0000, 1.0000, -1.5000, 0.0000
13.6110, -0.4511, 0.2746, -9.5223, 0.0016, 0.0073, 0.0035, 0.9237, 0.9232, -1.3498, 0.0162, 0.1451, -0.0837, 990, 118316, 1.0000, 1.0000, -1.5000, 0.0000
13.6310, -0.4511, 0.2746, -9.5223, 0.0016, 0.0073, 0.0035, 0.9277, 0.9269, -1.3520, 0.0158, 0.1428, -0.0820, 991, 118316, 1.0000, 1.0000, -1.5000, 0.0000
13.6510, -0.4511, 0.2746, -9.5223, 0.0016, 0.0073, 0.0035, 0.9315, 0.9304, -1.3538, 0.0153, 0.1410, -0.0806, 992, 118316, 1.0000, 1.0000, -1.5000, 0.0000
13.6710, -0.4511, 0.2746, -9.5223, 0.0016, 0.0073, 0.0035, 0.9353, 0.9338, -1.3558, 0.0148, 0.1396, -0.0800, 993, 118316, 1.0000, 1.0000, -1.5000, 0.0000
13.6910, -0.4511, 0.2746, -9.5223, 0.0016, 0.0073, 0.0035, 0.9388, 0.9370, -1.3577, 0.0144, 0.1381, -0.0792, 994, 118316, 1.0000, 1.0000, -1.5000, 0.0000
13.7110, -0.4511, 0.2746, -9.5223, 0.0016, 0.0073, 0.0035, 0.9423, 0.9401, -1.3597, 0.0143, 0.1368, -0.0784, 995, 118316, 1.0000, 1.0000, -1.5000, 0.0000
13.7310, -0.4511, 0.2746, -9.5223, 0.0016, 0.0073, 0.0035, 0.9456, 0.9431, -1.3614, 0.0139, 0.1353, -0.0772, 996, 118316, 1.0000, 1.0000, -1.5000, 0.0000
13.7510, -0.4511, 0.2746, -9.5223, 0.0016, 0.0073, 0.0035, 0.9487, 0.9459, -1.3631, 0.0132, 0.1332, -0.0752, 997, 118316, 1.0000, 1.0000, -1.5000, 0.0000
13.7710, -0.4511, 0.2746, -9.5223, 0.0016, 0.0073, 0.0035, 0.9518, 0.9486, -1.3651, 0.0130, 0.1312, -0.0737, 998, 118316, 1.0000, 1.0000, -1.5000, 0.0000
13.7910, -0.4511, 0.2746, -9.5223, 0.0016, 0.0073, 0.0035, 0.9548, 0.9513, -1.3668, 0.0129, 0.1301, -0.0725, 999, 118316, 1.0000, 1.0000, -1.5000, 0.0000
13.8110, -0.4511, 0.2746, -9.5223, 0.0016, 0.0073, 0.0035, 0.9574, 0.9537, -1.3684, 0.0120, 0.1285, -0.0714, 1000, 118316, 1.0000, 1.0000, -1.5000, 0.0000
13.8310, -0.4511, 0.2746, -9.5223, 0.0016, 0.0073, 0.0035, 0.9601, 0.9561, -1.3700, 0.0119, 0.1268, -0.0698, 1001, 118316, 1.0000, 1.0000, -1.5000, 0.0000
13.8510, -0.4511, 0.2746, -9.5223, 0.0016, 0.0073, 0.0035, 0.9627, 0.9585, -1.3717, 0.0117, 0.1249, -0.0690, 1002, 118316, 1.0000, 1.0000, -1.5000, 0.0000
13.8710, -0.4511, 0.2746, -9.5223, 0.0016, 0.0073, 0.0035, 0.9651, 0.9607, -1.3733, 0.0109, 0.1236, -0.0680, 1003, 118316, 1.0000, 1.0000, -1.5000, 0.0000
13.8910, -0.4511, 0.2746, -9.5223, 0.0016, 0.0073, 0.0035, 0.9676, 0.9629, -1.3749, 0.0108, 0.1230, -0.0669, 1004, 118316, 1.0000, 1.0000, -1.5000, 0.0000
13.9110, -0.4511, 0.2746, -9.5223, 0.0016, 0.0073, 0.0035, 0.9700, 0.9649, -1.3766, 0.0107, 0.1208, -0.0657, 1005, 118316, 1.0000, 1.0000, -1.5000, 0.0000
13.9310, -0.4511, 0.2746, -9.5223, 0.0016, 0.0073, 0.0035, 0.9722, 0.9668, -1.3780, 0.0103, 0.1195, -0.0649, 1006, 118316, 1.0000, 1.0000, -1.5000, 0.0000
13.9510, -0.4511, 0.2746, -9.5223, 0.0016, 0.0073, 0.0035, 0.9744, 0.9688, -1.3797, 0.0100, 0.1176, -0.0643, 1007, 118316, 1.0000, 1.0000, -1.5000, 0.0000
13.9710, -0.4511, 0.2746, -9.5223, 0.0016, 0.0073, 0.0035, 0.9765, 0.9706, -1.3813, 0.0102, 0.1174, -0.0630, 1008, 118316, 1.0000, 1.0000, -1.5000, 0.0000
13.9910, -0.4511, 0.2746, -9.5223, 0.0016, 0.0073, 0.0035, 0.9787, 0.9724, -1.3828, 0.0100, 0.1168, -0.0620, 1009, 118316, 1.0000, 1.0000, -1.5000, 0.0000
14.0110, -0.4511, 0.2746, -9.5223, 0.0016, 0.0073, 0.0035, 0.9805, 0.9741, -1.3843, 0.0096, 0.1159, -0.0612, 1010, 118316, 1.0000, 1.0000, -1.5000, 0.0000
14.0310, -0.4511, 0.2746, -9.5223, 0.0016, 0.0073, 0.0035, 0.9825, 0.9758, -1.3858, 0.0098, 0.1148, -0.0606, 1011, 118316, 1.0000, 1.0000, -1.5000, 0.0000
14.0510, -0.4511, 0.2746, -9.5223, 0.0016, 0.0073, 0.0035, 0.9844, 0.9774, -1.3873, 0.0095, 0.1141, -0.0605, 1012, 118316, 1.0000, 1.0000, -1.5000, 0.0000
14.0710, -0.4511, 0.2746, -9.5223, 0.0016, 0.0073, 0.0035, 0.9860, 0.9789, -1.3888, 0.0099, 0.1138, -0.0598, 1013, 118316, 1.0000, 1.0000, -1.5000, 0.0000
14.0910, -0.4511, 0.2746, -9.5223, 0.0016, 0.0073, 0.0035, 0.9878, 0.9804, -1.3902, 0.0094, 0.1136, -0.0594, 1014, 118316, 1.0000, 1.0000, -1.5000, 0.0000
14.1110, -0.4511, 0.2746, -9.5223, 0.0016, 0.0073, 0.0035, 0.9897, 0.9818, -1.3917, 0.0091, 0.1132, -0.0587, 1015, 118316, 1.0000, 1.0000, -1.5000, 0.0000
14.1310, -0.4511, 0.2746, -9.5223, 0.0016, 0.0073, 0.0035, 0.9914, 0.9833, -1.3931, 0.0090, 0.1126, -0.0580, 1016, 118316, 1.0000, 1.0000, -1.5000, 0.0000
14.1510, -0.4511, 0.2746, -9.5223, 0.0016, 0.0073, 0.0035, 0.9931, 0.9846, -1.3946, 0.0090, 0.1121, -0.0574, 1017, 118316, 1.0000, 1.0000, -1.5000, 0.0000
14.1710, -0.4511, 0.2746, -9.5223, 0.0016, 0.0073, 0.0035, 0.9948, 0.9859, -1.3962, 0.0088, 0.1112, -0.0575, 1018, 118316, 1.0000, 1.0000, -1.5000, 0.0000
14.1920, -0.4511, 0.2746, -9.5223, 0.0016, 0.0073, 0.0035, 0.9966, 0.9872, -1.3976, 0.0088, 0.1100, -0.0569, 1019, 118316, 1.0000, 1.0000, -1.5000, 0.0000
14.2120, -0.4511, 0.2746, -9.5223, 0.0016, 0.0073, 0.0035, 0.9980, 0.9885, -1.3990, 0.0090, 0.1097, -0.0566, 1020, 118316, 1.0000, 1.0000, -1.5000, 0.0000
14.2320, -0.4511, 0.2746, -9.5223, 0.0016, 0.0073, 0.0035, 0.9996, 0.9896, -1.4004, 0.0088, 0.1096, -0.0567, 1021, 118316, 1.0000, 1.0000, -1.5000, 0.0000
14.2520, -0.4511, 0.2746, -9.5223, 0.0016, 0.0073, 0.0035, 1.0012, 0.9907, -1.4018, 0.0085, 0.1096, -0.0561, 1022, 118316, 1.0000, 1.0000, -1.5000, 0.0000
14.2720, -0.4511, 0.2746, -9.5223, 0.0016, 0.0073, 0.0035, 1.0027, 0.9919, -1.4033, 0.0089, 0.1099, -0.0556, 1023, 118316, 1.0000, 1.0000, -1.5000, 0.0000
14.2920, -0.4511, 0.2746, -9.5223, 0.0016, 0.0073, 0.0035, 1.0042, 0.9931, -1.4047, 0.0088, 0.1102, -0.0552, 1024, 118316, 1.0000, 1.0000, -1.5000, 0.0000
14.3120, -0.4511, 0.2746, -9.5223, 0.0016, 0.0073, 0.0035, 1.0055, 0.9941, -1.4060, 0.0090, 0.1106, -0.0540, 1025, 118316, 1.0000, 1.0000, -1.5000, 0.0000
14.3320, -0.4511, 0.2746, -9.5223, 0.0016, 0.0073, 0.0035, 1.0070, 0.9951, -1.4075, 0.0090, 0.1104, -0.0536, 1026, 118316, 1.0000, 1.0000, -1.5000, 0.0000
14.3520, -0.4511, 0.2746, -9.5223, 0.0016, 0.0073, 0.0035, 1.0086, 0.9963, -1.4089, 0.0090, 0.1105, -0.0535, 1027, 118316, 1.0000, 1.0000, -1.5000, 0.0000
14.3720, -0.4511, 0.2746, -9.5223, 0.0016, 0.0073, 0.0035, 1.0100, 0.9973, -1.4102, 0.0090, 0.1108, -0.0533, 1028, 118316, 1.0000, 1.0000, -1.5000, 0.0000
14.3920, -0.4511, 0.2746, -9.5223, 0.0016, 0.0073, 0.0035, 1.0112, 0.9982, -1.4116, 0.0092, 0.1112, -0.0530, 1029, 118316, 1.0000, 1.0000, -1.5000, 0.0000
14.4120, -0.4511, 0.2746, -9.5223, 0.0016, 0.0073, 0.0035, 1.0127, 0.9992, -1.4128, 0.0094, 0.1119, -0.0535, 1030, 118316, 1.0000, 1.0000, -1.5000, 0.0000
14.4320, -0.4511, 0.2746, -9.5223, 0.0016, 0.0073, 0.0035, 1.0141, 1.0003, -1.4142, 0.0094, 0.1115, -0.0537, 1031, 118316, 1.0000, 1.0000, -1.5000, 0.0000
14.4520, -0.4511, 0.2746, -9.5223, 0.0016, 0.0073, 0.0035, 1.0154, 1.0012, -1.4156, 0.0095, 0.1117, -0.0534, 1032, 118316, 1.0000, 1.0000, -1.5000, 0.0000
14.4720, -0.4511, 0.2746, -9.5223, 0.0016, 0.0073, 0.0035, 1.0167, 1.0021, -1.4168, 0.0096, 0.1128, -0.0533, 1033, 118316, 1.0000, 1.0000, -1.5000, 0.0000
14.4920, -0.4511, 0.2746, -9.5223, 0.0016, 0.0073, 0.0035, 1.0179, 1.0030, -1.4182, 0.0098, 0.1128, -0.0532, 1034, 118316, 1.0000, 1.0000, -1.5000, 0.0000
14.5120, -0.4511, 0.2746, -9.5223, 0.0016, 0.0073, 0.0035, 1.0191, 1.0040, -1.4194, 0.0096, 0.1128, -0.0532, 1035, 118316, 1.0000, 1.0000, -1.5000, 0.0000
14.5320, -0.4511, 0.2746, -9.5223, 0.0016, 0.0073, 0.0035, 1.0203, 1.0049, -1.4206, 0.0098, 0.1129, -0.0537, 1036, 118316, 1.0000, 1.0000, -1.5000, 0.0000
14.5520, -0.4511, 0.2746, -9.5223, 0.0016, 0.0073, 0.0035, 1.0214, 1.0057, -1.4218, 0.0100, 0.1134, -0.0540, 1037, 118316, 1.0000, 1.0000, -1.5000, 0.0000
14.5720, -0.4511, 0.2746, -9.5223, 0.0016, 0.0073, 0.0035, 1.0226, 1.0066, -1.4230, 0.0098, 0.1137, -0.0541, 1038, 118316, 1.0000, 1.0000, -1.5000, 0.0000
14.5920, -0.4511, 0.2746, -9.5223, 0.0016, 0.0073, 0.0035, 1.0235, 1.0074, -1.4242, 0.0101, 0.1143, -0.0539, 1039, 118316, 1.0000, 1.0000, -1.5000, 0.0000
14.6120, -0.4511, 0.2746, -9.5223, 0.0016, 0.0073, 0.0035, 1.0247, 1.0082, -1.4253, 0.0102, 0.1147, -0.0541, 1040, 118316, 1.0000, 1.0000, -1.5000, 0.0000
14.6320, -0.4511, 0.2746, -9.5223, 0.0016, 0.0073, 0.0035, 1.0257, 1.0090, -1.4265, 0.0102, 0.1149, -0.0540, 1041, 118316, 1.0000, 1.0000, -1.5000, 0.0000
14.6520, -0.4511, 0.2746, -9.5223, 0.0016, 0.0073, 0.0035, 1.0267, 1.0098, -1.4275, 0.0104, 0.1153, -0.0543, 1042, 118316, 1.0000, 1.0000, -1.5000, 0.0000
14.6720, -0.4511, 0.2746, -9.5223, 0.0016, 0.0073, 0.0035, 1.0279, 1.0106, -1.4287, 0.0104, 0.1153, -0.0535, 1043, 118316, 1.0000, 1.0000, -1.5000, 0.0000
14.6920, -0.4511, 0.2746, -9.5223, 0.0016, 0.0073, 0.0035, 1.0287, 1.0113, -1.4298, 0.0104, 0.1153, -0.0526, 1044, 118316, 1.0000, 1.0000, -1.5000, 0.0000
14.7120, -0.4511, 0.2746, -9.5223, 0.0016, 0.0073, 0.0035, 1.0295, 1.0120, -1.4307, 0.0105, 0.1156, -0.0524, 1045, 118316, 1.0000, 1.0000, -1.5000, 0.0000
14.7320, -0.4511, 0.2746, -9.5223, 0.0016, 0.0073, 0.0035, 1.0304, 1.0127, -1.4317, 0.0107, 0.1157, -0.0524, 1046, 118316, 1.0000, 1.0000, -1.5000, 0.0000
14.7520, -0.4511, 0.2746, -9.5223, 0.0016, 0.0073, 0.0035, 1.0312, 1.0135, -1.4327, 0.0107, 0.1160, -0.0524, 1047, 118316, 1.0000, 1.0000, -1.5000, 0.0000
14.7720, -0.4511, 0.2746, -9.5223, 0.0016, 0.0073, 0.0035, 1.0320, 1.0141, -1.4336, 0.0106, 0.1164, -0.0525, 1048, 118316, 1.0000, 1.0000, -1.5000, 0.0000
14.7920, -0.4511, 0.2746, -9.5223, 0.0016, 0.0073, 0.0035, 1.0328, 1.0148, -1.4346, 0.0107, 0.1166, -0.0535, 1049, 118316, 1.0000, 1.0000, -1.5000, 0.0000
14.8120, -0.4511, 0.2746, -9.5223, 0.0016, 0.0073, 0.0035, 1.0337, 1.0155, -1.4357, 0.0107, 0.1170, -0.0521, 1050, 118316, 1.0000, 1.0000, -1.5000, 0.0000
14.8320, -0.4511, 0.2746, -9.5223, 0.0016, 0.0073, 0.0035, 1.0341, 1.0162, -1.4367, 0.0108, 0.1165, -0.0522, 1051, 118316, 1.0000, 1.0000, -1.5000, 0.0000
14.8520, -0.4511, 0.2746, -9.5223, 0.0016, 0.0073, 0.0035, 1.0349, 1.0168, -1.4376, 0.0110, 0.1160, -0.0520, 1052, 118316, 1.0000, 1.0000, -1.5000, 0.0000
14.8720, -0.4511, 0.2746, -9.5223, 0.0016, 0.0073, 0.0035, 1.0355, 1.0175, -1.4386, 0.0108, 0.1162, -0.0518, 1053, 118316, 1.0000, 1.0000, -1.5000, 0.0000
14.8920, -0.4511, 0.2746, -9.5223, 0.0016, 0.0073, 0.0035, 1.0360, 1.0181, -1.4394, 0.0108, 0.1163, -0.0515, 1054, 118316, 1.0000, 1.0000, -1.5000, 0.0000
14.9120, -0.4511, 0.2746, -9.5223, 0.0016, 0.0073, 0.0035, 1.0365, 1.0188, -1.4405, 0.0109, 0.1167, -0.0509, 1055, 118316, 1.0000, 1.0000, -1.5000, 0.0000
14.9320, -0.4511, 0.2746, -9.5223, 0.0016, 0.0073, 0.0035, 1.0370, 1.0194, -1.4414, 0.0110, 0.1165, -0.0506, 1056, 118316, 1.0000, 1.0000, -1.5000, 0.0000
14.9520, -0.4511, 0.2746, -9.5223, 0.0016, 0.0073, 0.0035, 1.0375, 1.0201, -1.4424, 0.0108, 0.1162, -0.0511, 1057, 118316, 1.0000, 1.0000, -1.5000, 0.0000
14.9720, -0.4511, 0.2746, -9.5223, 0.0016, 0.0073, 0.0035, 1.0380, 1.0207, -1.4433, 0.0111, 0.1163, -0.0505, 1058, 118316, 1.0000, 1.0000, -1.5000, 0.0000
14.9920, -0.4511, 0.2746, -9.5223, 0.0016, 0.0073, 0.0035, 1.0386, 1.0213, -1.4443, 0.0113, 0.1157, -0.0507, 1059, 118316, 1.0000, 1.0000, -1.5000, 0.0000
15.0120, -0.4511, 0.2746, -9.5223, 0.0016, 0.0073, 0.0035, 1.0388, 1.0218, -1.4451, 0.0113, 0.1156, -0.0509, 1060, 118316, 1.0000, 1.0000, -1.5000, 0.0000
15.0320, -0.4511, 0.2746, -9.5223, 0.0016, 0.0073, 0.0035, 1.0390, 1.0225, -1.4459, 0.0112, 0.1155, -0.0509, 1061, 118316, 0.9960, 0.9960, -1.4980, 0.0000
15.0520, -0.4511, 0.2746, -9.5223, 0.0016, 0.0073, 0.0035, 1.0395, 1.0232, -1.4469, 0.0116, 0.1152, -0.0508, 1062, 118316, 0.9893, 0.9893, -1.4947, 0.0000
15.0720, -0.4511, 0.2746, -9.5223, 0.0016, 0.0073, 0.0035, 1.0397, 1.0237, -1.4478, 0.0118, 0.1162, -0.0504, 1063, 118316, 0.9827, 0.9827, -1.4913, 0.0000
15.0920, -0.4511, 0.2746, -9.5223, 0.0016, 0.0073, 0.0035, 1.0397, 1.0243, -1.4484, 0.0119, 0.1164, -0.0503, 1064, 118316, 0.9760, 0.9760, -1.4880, 0.0000
15.1120, -0.4511, 0.2746, -9.5223, 0.0016, 0.0073, 0.0035, 1.0402, 1.0249, -1.4494, 0.0122, 0.1163, -0.0502, 1065, 118316, 0.9693, 0.9693, -1.4847, 0.0000
15.1320, -0.4511, 0.2746, -9.5223, 0.0016, 0.0073, 0.0035, 1.0403, 1.0255, -1.4502, 0.0123, 0.1163, -0.0503, 1066, 118316, 0.9627, 0.9627, -1.4813, 0.0000
15.1520, -0.4511, 0.2746, -9.5223, 0.0016, 0.0073, 0.0035, 1.0403, 1.0260, -1.4509, 0.0122, 0.1162, -0.0508, 1067, 118316, 0.9560, 0.9560, -1.4780, 0.0000
15.1720, -0.4511, 0.2746, -9.5223, 0.0016, 0.0073, 0.0035, 1.0405, 1.0266, -1.4517, 0.0125, 0.1168, -0.0517, 1068, 118316, 0.9493, 0.9493, -1.4747, 0.0000
15.1920, -0.4511, 0.2746, -9.5223, 0.0016, 0.0073, 0.0035, 1.0405, 1.0271, -1.4523, 0.0127, 0.1173, -0.0526, 1069, 118316, 0.9427, 0.9427, -1.4713, 0.0000
15.2120, -0.4511, 0.2746, -9.5223, 0.0016, 0.0073, 0.0035, 1.0405, 1.0276, -1.4529, 0.0128, 0.1183, -0.0536, 1070, 118316, 0.9360, 0.9360, -1.4680, 0.0000
15.2320, -0.4511, 0.2746, -9.5223, 0.0016, 0.0073, 0.0035, 1.0404, 1.0281, -1.4535, 0.0129, 0.1198, -0.0544, 1071, 118316, 0.9293, 0.9293, -1.4647, 0.0000
15.2520, -0.4511, 0.2746, -9.5223, 0.0016, 0.0073, 0.0035, 1.0403, 1.0286, -1.4540, 0.0131, 0.1210, -0.0559, 1072, 118316, 0.9227, 0.9227, -1.4613, 0.0000
15.2720, -0.4511, 0.2746, -9.5223, 0.0016, 0.0073, 0.0035, 1.0401, 1.0290, -1.4545, 0.0132, 0.1233, -0.0570, 1073, 118316, 0.9160, 0.9160, -1.4580, 0.0000
15.2920, -0.4511, 0.2746, -9.5223, 0.0016, 0.0073, 0.0035, 1.0399, 1.0294, -1.4549, 0.0135, 0.1249, -0.0589, 1074, 118316, 0.9093, 0.9093, -1.4547, 0.0000
15.3120, -0.4511, 0.2746, -9.5223, 0.0016, 0.0073, 0.0035, 1.0396, 1.0298, -1.4552, 0.0137, 0.1265, -0.0609, 1075, 118316, 0.9027, 0.9027, -1.4513, 0.0000
15.3320, -0.4511, 0.2746, -9.5223, 0.0016, 0.0073, 0.0035, 1.0393, 1.0300, -1.4555, 0.0137, 0.1280, -0.0630, 1076, 118316, 0.8960, 0.8960, -1.4480, 0.0000
15.3540, -0.4511, 0.2746, -9.5223, 0.0016, 0.0073, 0.0035, 1.0389, 1.0303, -1.4556, 0.0139, 0.1295, -0.0658, 1077, 118316, 0.8893, 0.8893, -1.4447, 0.0000
15.3740, -0.4511, 0.2746, -9.5223, 0.0016, 0.0073, 0.0035, 1.0383, 1.0305, -1.4558, 0.0139, 0.1313, -0.0680, 1078, 118316, 0.8820, 0.8820, -1.4410, 0.0000
15.3940, -0.4511, 0.2746, -9.5223, 0.0016, 0.0073, 0.0035, 1.0377, 1.0306, -1.4558, 0.0137, 0.1334, -0.0703, 1079, 118316, 0.8753, 0.8753, -1.4377, 0.0000
15.4140, -0.4511, 0.2746, -9.5223, 0.0016, 0.0073, 0.0035, 1.0372, 1.0306, -1.4557, 0.0140, 0.1349, -0.0728, 1080, 118316, 0.8687, 0.8687, -1.4343, 0.0000
15.4340, -0.4511, 0.2746, -9.5223, 0.0016, 0.0073, 0.0035, 1.0365, 1.0306, -1.4556, 0.0140, 0.1372, -0.0762, 1081, 118316, 0.8620, 0.8620, -1.4310, 0.0000
15.4540, -0.4511, 0.2746, -9.5223, 0.0016, 0.0073, 0.0035, 1.0356, 1.0303, -1.4554, 0.0141, 0.1392, -0.0793, 1082, 118316, 0.8553, 0.8553, -1.4277, 0.0000
15.4740, -0.4511, 0.2746, -9.5223, 0.0016, 0.0073, 0.0035, 1.0346, 1.0301, -1.4551, 0.0141, 0.1411, -0.0821, 1083, 118316, 0.8487, 0.8487, -1.4243, 0.0000
15.4940, -0.4511, 0.2746, -9.5223, 0.0016, 0.0073, 0.0035, 1.0336, 1.0298, -1.4548, 0.0143, 0.1430, -0.0849, 1084, 118316, 0.8420, 0.8420, -1.4210, 0.0000
15.5140, -0.4511, 0.2746, -9.5223, 0.0016, 0.0073, 0.0035, 1.0324, 1.0292, -1.4543, 0.0144, 0.1449, -0.0872, 1085, 118316, 0.8353, 0.8353, -1.4177, 0.0000
15.5340, -0.4511, 0.2746, -9.5223, 0.0016, 0.0073, 0.0035, 1.0311, 1.0286, -1.4538, 0.0145, 0.1469, -0.0892, 1086, 118316, 0.8287, 0.8287, -1.4143, 0.0000
15.5540, -0.4511, 0.2746, -9.5223, 0.0016, 0.0073, 0.0035, 1.0295, 1.0278, -1.4531, 0.0145, 0.1491, -0.0913, 1087, 118316, 0.8220, 0.8220, -1.4110, 0.0000
15.5740, -0.4511, 0.2746, -9.5223, 0.0016, 0.0073, 0.0035, 1.0277, 1.0269, -1.4524, 0.0144, 0.1501, -0.0931, 1088, 118316, 0.8153, 0.8153, -1.4077, 0.0000
