time (s), gyro_x (rad/s), gyro_y (rad/s), gyro_z (rad/s), imu_pitch (rad), imu_roll (rad), imu_yaw (rad), counter, x (m), y (m), z (m), yaw (rad), pitch (rad), roll (rad), angle_pitch_desired (rad), mu1, mu2
0.0000, 0.2836, -3.4393, -0.2169, 0.0833, -0.0105, 0.9050, 493781, 0.0443, -0.3127, -0.1034, -0.0339, -0.0980, 0.1108, -0.2180, 135, 184
0.0160, 0.9297, -6.2174, 0.0242, -0.0101, -0.0096, 0.9044, 493801, 0.0444, -0.3127, -0.1034, -0.0339, -0.0981, 0.1108, -0.2315, 187, 130
0.0470, -0.5870, -6.8206, -0.1470, -0.2845, -0.0086, 0.9043, 493841, 0.0443, -0.3126, -0.1034, -0.0338, -0.0981, 0.1108, -0.2572, 200, 1
0.0630, -0.5870, -6.8206, -0.1470, -0.2845, -0.0086, 0.9043, 493841, 0.0443, -0.3127, -0.1034, -0.0339, -0.0981, 0.1108, -0.2572, 200, 1
0.0780, 0.5271, -3.2490, -0.0796, -0.4946, -0.0089, 0.9048, 493881, 0.0443, -0.3126, -0.1034, -0.0338, -0.0982, 0.1108, -0.2812, 200, 1
0.0940, 0.5271, -3.2490, -0.0796, -0.4946, -0.0089, 0.9048, 493881, 0.0444, -0.3127, -0.1035, -0.0339, -0.0980, 0.1108, -0.2812, 200, 1
0.1250, -0.5085, -0.0508, -0.0180, -0.5257, -0.0096, 0.9043, 493901, 0.0443, -0.3127, -0.1034, -0.0339, -0.0981, 0.1108, -0.2924, 200, 94
0.1410, -0.5287, 5.7215, 0.0110, -0.4119, -0.0112, 0.9050, 493941, 0.0443, -0.3127, -0.1034, -0.0339, -0.0981, 0.1108, -0.3133, 55, 200
0.1560, -0.5287, 5.7215, 0.0110, -0.4119, -0.0112, 0.9050, 493941, 0.0443, -0.3127, -0.1034, -0.0338, -0.0981, 0.1108, -0.3133, 55, 200
0.1880, 0.1650, 5.9651, -0.2145, -0.2971, -0.0108, 0.9057, 493961, 0.0443, -0.3127, -0.1034, -0.0338, -0.0982, 0.1108, -0.3229, 1, 200
0.2030, -0.3311, 3.3772, -0.0314, -0.1101, -0.0124, 0.9063, 494001, 0.0444, -0.3127, -0.1034, -0.0339, -0.0979, 0.1109, -0.3405, 1, 200
0.2190, -0.3311, 3.3772, -0.0314, -0.1101, -0.0124, 0.9063, 494001, 0.0444, -0.3127, -0.1034, -0.0339, -0.0981, 0.1108, -0.3405, 1, 200
0.2340, -0.2314, -2.2314, -0.2543, -0.1059, -0.0119, 0.9067, 494041, 0.0444, -0.3127, -0.1034, -0.0338, -0.0980, 0.1108, -0.3557, 143, 178
0.2660, -0.0341, -5.9290, -0.0347, -0.1925, -0.0106, 0.9060, 494061, 0.0443, -0.3127, -0.1034, -0.0338, -0.0980, 0.1108, -0.3623, 195, 123
0.2810, -0.0341, -5.9290, -0.0347, -0.1925, -0.0106, 0.9060, 494061, 0.0443, -0.3127, -0.1034, -0.0337, -0.0983, 0.1108, -0.3623, 195, 123
0.2970, 0.1970, -5.9925, 0.0223, -0.4494, -0.0110, 0.9048, 494101, 0.0444, -0.3127, -0.1034, -0.0338, -0.0979, 0.1108, -0.3737, 200, 1
0.3280, -0.4005, -4.0215, -0.0013, -0.5609, -0.0093, 0.9046, 494121, 0.0443, -0.3127, -0.1034, -0.0339, -0.0981, 0.1107, -0.3785, 200, 1
0.3440, -0.4005, -4.0215, -0.0013, -0.5609, -0.0093, 0.9046, 494121, 0.0443, -0.3127, -0.1035, -0.0338, -0.0982, 0.1109, -0.3785, 200, 1
0.3590, -0.1379, 0.5298, 0.0769, -0.6447, -0.0082, 0.9032, 494161, 0.0443, -0.3127, -0.1034, -0.0338, -0.0981, 0.1109, -0.3859, 200, 110
0.3750, -0.1379, 0.5298, 0.0769, -0.6447, -0.0082, 0.9032, 494161, 0.0443, -0.3127, -0.1034, -0.0338, -0.0982, 0.1108, -0.3859, 200, 110
0.4060, -0.6932, 6.3814, 0.2505, -0.4976, -0.0073, 0.9036, 494201, 0.0443, -0.3127, -0.1034, -0.0339, -0.0981, 0.1109, -0.3906, 49, 200
0.4220, -0.6932, 6.3814, 0.2505, -0.4976, -0.0073, 0.9036, 494201, 0.0443, -0.3127, -0.1034, -0.0339, -0.0982, 0.1107, -0.3906, 49, 200
0.4370, -0.6569, 7.0880, 0.0019, -0.3714, -0.0070, 0.9037, 494221, 0.0443, -0.3127, -0.1034, -0.0338, -0.0981, 0.1109, -0.3920, 1, 200
0.4690, 0.1645, 2.5271, 0.3658, -0.1686, -0.0044, 0.9051, 494261, 0.0443, -0.3126, -0.1034, -0.0338, -0.0982, 0.1108, -0.3926, 1, 200
0.4840, 0.1645, 2.5271, 0.3658, -0.1686, -0.0044, 0.9051, 494261, 0.0443, -0.3127, -0.1034, -0.0339, -0.0981, 0.1109, -0.3926, 1, 200
0.5000, 0.1658, 0.4765, 0.1188, -0.1321, -0.0038, 0.9050, 494281, 0.0443, -0.3127, -0.1034, -0.0339, -0.0981, 0.1109, -0.3919, 43, 200
0.5160, 0.1658, 0.4765, 0.1188, -0.1321, -0.0038, 0.9050, 494281, 0.0444, -0.3127, -0.1034, -0.0338, -0.0980, 0.1108, -0.3919, 43, 200
0.5470, 0.2728, -5.4616, 0.2086, -0.2375, -0.0005, 0.9023, 494321, 0.0443, -0.3127, -0.1034, -0.0339, -0.0981, 0.1108, -0.3884, 200, 90
0.5620, 0.6741, -6.3865, -0.2145, -0.3594, -0.0003, 0.9018, 494341, 0.0444, -0.3127, -0.1033, -0.0338, -0.0980, 0.1108, -0.3856, 200, 1
0.5780, 0.6741, -6.3865, -0.2145, -0.3594, -0.0003, 0.9018, 494341, 0.0443, -0.3127, -0.1035, -0.0338, -0.0981, 0.1108, -0.3856, 200, 1
0.6090, -0.5499, -1.5079, -0.0750, -0.6404, 0.0000, 0.8966, 494401, 0.0443, -0.3127, -0.1034, -0.0338, -0.0981, 0.1109, -0.3732, 200, 15
0.6250, 0.3088, 0.5698, 0.1398, -0.6500, -0.0021, 0.8964, 494421, 0.0443, -0.3127, -0.1034, -0.0338, -0.0980, 0.1108, -0.3678, 200, 114
0.6410, 0.3088, 0.5698, 0.1398, -0.6500, -0.0021, 0.8964, 494421, 0.0443, -0.3127, -0.1034, -0.0338, -0.0982, 0.1107, -0.3678, 200, 114
0.6560, -0.1344, 6.6878, 0.1269, -0.4992, -0.0031, 0.8978, 494461, 0.0443, -0.3127, -0.1034, -0.0338, -0.0981, 0.1108, -0.3550, 89, 200
0.6870, 0.5927, 5.1351, 0.3083, -0.3817, -0.0047, 0.8992, 494481, 0.0443, -0.3127, -0.1035, -0.0339, -0.0981, 0.1108, -0.3476, 36, 200
0.7030, 0.5927, 5.1351, 0.3083, -0.3817, -0.0047, 0.8992, 494481, 0.0443, -0.3126, -0.1034, -0.0338, -0.0983, 0.1107, -0.3476, 36, 200
0.7190, 0.1459, 4.9915, 0.1720, -0.2714, -0.0059, 0.9006, 494501, 0.0443, -0.3127, -0.1034, -0.0339, -0.0979, 0.1108, -0.3397, 1, 200
0.7500, 0.1459, 4.9915, 0.1720, -0.2714, -0.0059, 0.9006, 494501, 0.0443, -0.3127, -0.1034, -0.0339, -0.0982, 0.1108, -0.3397, 1, 200
0.7650, -0.2685, 0.9668, -0.2508, -0.1529, -0.0056, 0.9013, 494541, 0.0444, -0.3127, -0.1034, -0.0339, -0.0980, 0.1109, -0.3220, 81, 200
0.7810, -0.4669, -4.3801, -0.2481, -0.2482, -0.0040, 0.9001, 494581, 0.0443, -0.3127, -0.1034, -0.0339, -0.0981, 0.1108, -0.3021, 200, 50
0.7970, -0.4669, -4.3801, -0.2481, -0.2482, -0.0040, 0.9001, 494581, 0.0443, -0.3127, -0.1034, -0.0339, -0.0982, 0.1107, -0.3021, 200, 50
0.8280, -0.5897, -4.0016, -0.1890, -0.3471, -0.0031, 0.8987, 494601, 0.0443, -0.3127, -0.1034, -0.0339, -0.0980, 0.1108, -0.2913, 200, 21
0.8440, 0.6480, -2.4499, 0.1204, -0.4974, -0.0003, 0.8962, 494641, 0.0444, -0.3127, -0.1034, -0.0338, -0.0981, 0.1108, -0.2682, 200, 1
0.8590, 0.6480, -2.4499, 0.1204, -0.4974, -0.0003, 0.8962, 494641, 0.0443, -0.3127, -0.1034, -0.0339, -0.0982, 0.1109, -0.2682, 200, 1
0.8750, -0.2946, 0.8198, -0.0159, -0.5105, -0.0010, 0.8954, 494661, 0.0443, -0.3127, -0.1035, -0.0339, -0.0980, 0.1109, -0.2560, 200, 113
0.9060, -0.6969, 6.4282, 0.1793, -0.3669, -0.0052, 0.8971, 494701, 0.0443, -0.3127, -0.1034, -0.0339, -0.0982, 0.1107, -0.2302, 43, 200
0.9220, -0.6969, 6.4282, 0.1793, -0.3669, -0.0052, 0.8971, 494701, 0.0443, -0.3127, -0.1034, -0.0338, -0.0980, 0.1109, -0.2302, 43, 200
0.9370, -0.4513, 5.6250, 0.0559, -0.1337, -0.0066, 0.8985, 494741, 0.0443, -0.3127, -0.1034, -0.0338, -0.0982, 0.1106, -0.2027, 1, 200
0.9690, 0.0597, 3.0504, 0.2884, -0.0511, -0.0059, 0.8994, 494761, 0.0443, -0.3127, -0.1034, -0.0339, -0.0981, 0.1109, -0.1885, 1, 200
0.9840, 0.0597, 3.0504, 0.2884, -0.0511, -0.0059, 0.8994, 494761, 0.0443, -0.3127, -0.1034, -0.0338, -0.0981, 0.1108, -0.1885, 1, 200
1.0000, -0.1812, -1.4477, -0.2000, -0.0232, -0.0049, 0.8981, 494801, 0.0443, -0.3127, -0.1034, -0.0338, -0.0981, 0.1108, -0.1590, 148, 173
1.0150, -0.1812, -1.4477, -0.2000, -0.0232, -0.0049, 0.8981, 494801, 0.0443, -0.3127, -0.1034, -0.0338, -0.0982, 0.1107, -0.1590, 148, 173
1.0470, 0.2596, -4.0341, 0.2193, -0.0820, -0.0056, 0.8973, 494821, 0.0443, -0.3127, -0.1034, -0.0339, -0.0980, 0.1109, -0.1438, 200, 84
1.0620, 0.2561, -2.5833, 0.0841, -0.2257, -0.0058, 0.8961, 494861, 0.0443, -0.3127, -0.1034, -0.0338, -0.0982, 0.1108, -0.1127, 200, 47
1.0780, 0.2561, -2.5833, 0.0841, -0.2257, -0.0058, 0.8961, 494861, 0.0444, -0.3127, -0.1034, -0.0339, -0.0980, 0.1108, -0.1127, 200, 47
1.1090, 0.0030, 2.8340, -0.0548, -0.2094, -0.0061, 0.8947, 494901, 0.0443, -0.3127, -0.1034, -0.0339, -0.0981, 0.1108, -0.0808, 143, 181
1.1250, 0.5738, 4.8722, -0.0253, -0.1244, -0.0091, 0.8954, 494921, 0.0444, -0.3127, -0.1034, -0.0338, -0.0981, 0.1107, -0.0647, 11, 200
1.1400, 0.5738, 4.8722, -0.0253, -0.1244, -0.0091, 0.8954, 494921, 0.0443, -0.3127, -0.1033, -0.0338, -0.0982, 0.1108, -0.0647, 11, 200
1.1560, 0.0048, 3.3020, -0.1895, 0.0475, -0.0065, 0.8943, 494961, 0.0443, -0.3127, -0.1034, -0.0339, -0.0981, 0.1108, -0.0320, 13, 200
1.1870, -0.2758, 1.2813, -0.0038, 0.0887, -0.0054, 0.8943, 494981, 0.0443, -0.3126, -0.1033, -0.0338, -0.0982, 0.1107, -0.0156, 93, 200
1.2030, -0.2758, 1.2813, -0.0038, 0.0887, -0.0054, 0.8943, 494981, 0.0444, -0.3127, -0.1034, -0.0339, -0.0980, 0.1109, -0.0156, 93, 200
1.2190, -0.4739, -2.0962, -0.2107, 0.0494, -0.0058, 0.8934, 495021, 0.0443, -0.3127, -0.1034, -0.0338, -0.0983, 0.1107, 0.0173, 190, 126
1.2500, -0.3725, 0.5534, -0.0535, -0.0117, -0.0073, 0.8913, 495061, 0.0443, -0.3126, -0.1034, -0.0337, -0.0979, 0.1109, 0.0500, 171, 150
1.2650, -0.3725, 0.5534, -0.0535, -0.0117, -0.0073, 0.8913, 495061, 0.0443, -0.3127, -0.1034, -0.0338, -0.0982, 0.1107, 0.0500, 171, 150
1.2810, 0.3333, 3.0461, -0.0067, 0.0232, -0.0084, 0.8919, 495081, 0.0444, -0.3127, -0.1033, -0.0338, -0.0980, 0.1107, 0.0663, 118, 196
1.2970, 0.3333, 3.0461, -0.0067, 0.0232, -0.0084, 0.8919, 495081, 0.0443, -0.3127, -0.1034, -0.0338, -0.0981, 0.1109, 0.0663, 118, 196
1.3280, -0.1535, 3.5334, 0.2282, 0.1641, -0.0110, 0.8926, 495121, 0.0444, -0.3127, -0.1034, -0.0338, -0.0981, 0.1108, 0.0985, 21, 200
1.3430, -0.0675, 1.1493, 0.2717, 0.2084, -0.0093, 0.8929, 495141, 0.0443, -0.3126, -0.1034, -0.0338, -0.0980, 0.1109, 0.1143, 106, 200
1.3590, -0.0675, 1.1493, 0.2717, 0.2084, -0.0093, 0.8929, 495141, 0.0443, -0.3127, -0.1035, -0.0339, -0.0981, 0.1108, 0.1143, 106, 200
1.3750, 0.0624, -0.2373, -0.1830, 0.2176, -0.0099, 0.8922, 495161, 0.0443, -0.3126, -0.1034, -0.0338, -0.0982, 0.1108, 0.1299, 140, 184
1.4060, -0.2548, -1.7140, 0.1715, 0.1525, -0.0108, 0.8920, 495201, 0.0443, -0.3127, -0.1034, -0.0338, -0.0981, 0.1109, 0.1605, 194, 123
1.4220, -0.2548, -1.7140, 0.1715, 0.1525, -0.0108, 0.8920, 495201, 0.0443, -0.3127, -0.1034, -0.0338, -0.0983, 0.1107, 0.1605, 194, 123
1.4370, -0.1793, 0.3881, -0.0161, 0.1377, -0.0113, 0.8913, 495221, 0.0444, -0.3126, -0.1034, -0.0338, -0.0980, 0.1109, 0.1754, 164, 160
1.4680, 0.0828, 2.6953, 0.0382, 0.2196, -0.0129, 0.8908, 495261, 0.0443, -0.3127, -0.1034, -0.0338, -0.0983, 0.1106, 0.2041, 96, 200
1.4840, 0.0828, 2.6953, 0.0382, 0.2196, -0.0129, 0.8908, 495261, 0.0444, -0.3127, -0.1034, -0.0339, -0.0981, 0.1109, 0.2041, 96, 200
1.5000, 0.1812, 1.7780, -0.2072, 0.2655, -0.0126, 0.8903, 495281, 0.0443, -0.3127, -0.1034, -0.0338, -0.0980, 0.1108, 0.2180, 109, 200
1.5150, 0.1812, 1.7780, -0.2072, 0.2655, -0.0126, 0.8903, 495281, 0.0443, -0.3127, -0.1034, -0.0339, -0.0981, 0.1108, 0.2180, 109, 200
1.5470, -0.1900, -1.0198, 0.2002, 0.2829, -0.0133, 0.8896, 495321, 0.0444, -0.3126, -0.1034, -0.0338, -0.0979, 0.1109, 0.2446, 173, 155
1.5620, 0.0527, 0.0605, -0.0925, 0.2508, -0.0157, 0.8885, 495361, 0.0443, -0.3127, -0.1034, -0.0338, -0.0982, 0.1107, 0.2694, 169, 159
1.5780, 0.0527, 0.0605, -0.0925, 0.2508, -0.0157, 0.8885, 495361, 0.0443, -0.3127, -0.1034, -0.0338, -0.0981, 0.1109, 0.2694, 169, 159
1.6090, 0.0263, 1.2810, 0.2779, 0.2641, -0.0150, 0.8885, 495381, 0.0443, -0.3127, -0.1035, -0.0339, -0.0980, 0.1108, 0.2812, 143, 183
1.6250, 0.0280, 0.9246, -0.2053, 0.3133, -0.0152, 0.8877, 495421, 0.0443, -0.3127, -0.1034, -0.0339, -0.0981, 0.1108, 0.3031, 144, 185
1.6400, 0.0280, 0.9246, -0.2053, 0.3133, -0.0152, 0.8877, 495421, 0.0443, -0.3127, -0.1034, -0.0338, -0.0981, 0.1109, 0.3031, 144, 185
1.6560, 0.0699, 0.3336, 0.0715, 0.3297, -0.0173, 0.8865, 495461, 0.0443, -0.3127, -0.1034, -0.0338, -0.0982, 0.1106, 0.3229, 160, 172
1.6870, 0.0589, 0.9034, -0.1390, 0.3396, -0.0187, 0.8858, 495481, 0.0444, -0.3127, -0.1034, -0.0339, -0.0981, 0.1108, 0.3320, 146, 184
1.7030, 0.0589, 0.9034, -0.1390, 0.3396, -0.0187, 0.8858, 495481, 0.0444, -0.3127, -0.1033, -0.0338, -0.0981, 0.1107, 0.3320, 146, 184
1.7180, -0.1621, 0.7612, -0.0027, 0.3684, -0.0182, 0.8856, 495521, 0.0443, -0.3127, -0.1034, -0.0339, -0.0980, 0.1108, 0.3484, 147, 186
1.7500, -0.1371, 0.6988, -0.0594, 0.3800, -0.0185, 0.8844, 495541, 0.0443, -0.3127, -0.1034, -0.0338, -0.0981, 0.1108, 0.3557, 147, 187
1.7650, -0.1371, 0.6988, -0.0594, 0.3800, -0.0185, 0.8844, 495541, 0.0444, -0.3127, -0.1034, -0.0338, -0.0979, 0.1108, 0.3557, 147, 187
1.7810, -0.2059, 0.7558, -0.1099, 0.3978, -0.0178, 0.8838, 495581, 0.0444, -0.3127, -0.1034, -0.0339, -0.0980, 0.1107, 0.3684, 142, 192
1.7960, -0.2059, 0.7558, -0.1099, 0.3978, -0.0178, 0.8838, 495581, 0.0443, -0.3127, -0.1034, -0.0339, -0.0982, 0.1106, 0.3684, 142, 192
1.8280, 0.5255, 0.1938, 0.2274, 0.4074, -0.0168, 0.8837, 495601, 0.0443, -0.3127, -0.1034, -0.0338, -0.0979, 0.1109, 0.3737, 149, 187
1.8430, -0.0887, 0.5029, -0.1218, 0.4239, -0.0176, 0.8830, 495641, 0.0443, -0.3127, -0.1034, -0.0338, -0.0983, 0.1107, 0.3825, 148, 189
1.8590, -0.0887, 0.5029, -0.1218, 0.4239, -0.0176, 0.8830, 495641, 0.0443, -0.3127, -0.1034, -0.0338, -0.0981, 0.1108, 0.3825, 148, 189
1.8900, -0.4454, 0.5577, -0.1529, 0.4335, -0.0187, 0.8824, 495681, 0.0443, -0.3127, -0.1034, -0.0339, -0.0980, 0.1108, 0.3886, 146, 191
1.9060, 0.4212, 0.0454, 0.2129, 0.4403, -0.0195, 0.8823, 495701, 0.0443, -0.3127, -0.1034, -0.0338, -0.0982, 0.1108, 0.3906, 143, 195
1.9210, 0.4212, 0.0454, 0.2129, 0.4403, -0.0195, 0.8823, 495701, 0.0443, -0.3127, -0.1034, -0.0339, -0.0980, 0.1109, 0.3906, 143, 195
1.9370, 0.1113, 0.4214, -0.1591, 0.4506, -0.0215, 0.8816, 495741, 0.0443, -0.3127, -0.1034, -0.0339, -0.0983, 0.1107, 0.3926, 144, 194
1.9680, -0.0234, 0.0650, 0.1438, 0.4541, -0.0206, 0.8816, 495761, 0.0443, -0.3127, -0.1034, -0.0339, -0.0981, 0.1108, 0.3926, 153, 188
1.9840, -0.0234, 0.0650, 0.1438, 0.4541, -0.0206, 0.8816, 495761, 0.0443, -0.3127, -0.1034, -0.0339, -0.0981, 0.1108, 0.3926, 153, 188
2.0000, 0.3204, -0.0946, 0.1140, 0.4597, -0.0209, 0.8800, 495801, 0.0443, -0.3127, -0.1034, -0.0339, -0.0982, 0.1108, 0.3905, 149, 191
2.0150, 0.3204, -0.0946, 0.1140, 0.4597, -0.0209, 0.8800, 495801, 0.0443, -0.3127, -0.1034, -0.0338, -0.0980, 0.1109, 0.3905, 149, 191
2.0460, 0.0508, 0.2924, -0.1895, 0.4595, -0.0185, 0.8795, 495841, 0.0443, -0.3127, -0.1034, -0.0338, -0.0982, 0.1107, 0.3856, 143, 196
2.0620, 0.0508, 0.2924, -0.1895, 0.4595, -0.0185, 0.8795, 495841, 0.0444, -0.3127, -0.1034, -0.0339, -0.0980, 0.1109, 0.3856, 143, 196
2.0780, 0.0508, 0.2924, -0.1895, 0.4595, -0.0185, 0.8795, 495841, 0.0443, -0.3127, -0.1034, -0.0339, -0.0981, 0.1108, 0.3856, 143, 196
2.1090, -0.5986, 0.1860, -0.2088, 0.4606, -0.0171, 0.8789, 495881, 0.0443, -0.3127, -0.1034, -0.0339, -0.0981, 0.1107, 0.3780, 151, 190
2.1250, 0.1250, -0.0097, 0.0030, 0.4601, -0.0166, 0.8784, 495901, 0.0443, -0.3127, -0.1034, -0.0338, -0.0980, 0.1109, 0.3732, 141, 198
2.1400, 0.1250, -0.0097, 0.0030, 0.4601, -0.0166, 0.8784, 495901, 0.0443, -0.3127, -0.1034, -0.0338, -0.0981, 0.1107, 0.3732, 141, 198
2.1560, 0.0785, 0.1158, -0.1140, 0.4571, -0.0176, 0.8777, 495941, 0.0444, -0.3127, -0.1034, -0.0339, -0.0980, 0.1109, 0.3617, 142, 196
2.1870, -0.3505, 0.2217, -0.2024, 0.4499, -0.0169, 0.8776, 495981, 0.0443, -0.3127, -0.1034, -0.0339, -0.0980, 0.1108, 0.3476, 137, 200
2.2030, -0.3505, 0.2217, -0.2024, 0.4499, -0.0169, 0.8776, 495981, 0.0443, -0.3127, -0.1034, -0.0339, -0.0980, 0.1108, 0.3476, 137, 200
2.2180, -0.2185, -0.0511, -0.1011, 0.4449, -0.0173, 0.8769, 496001, 0.0444, -0.3127, -0.1034, -0.0338, -0.0980, 0.1109, 0.3397, 142, 196
2.2500, 0.0298, 0.0067, -0.1158, 0.4316, -0.0171, 0.8762, 496041, 0.0443, -0.3127, -0.1034, -0.0339, -0.0982, 0.1108, 0.3220, 138, 197
2.2650, 0.0298, 0.0067, -0.1158, 0.4316, -0.0171, 0.8762, 496041, 0.0444, -0.3127, -0.1034, -0.0339, -0.0980, 0.1109, 0.3220, 138, 197
2.2810, -0.0153, -0.2080, -0.0629, 0.4222, -0.0143, 0.8762, 496081, 0.0443, -0.3127, -0.1034, -0.0338, -0.0982, 0.1108, 0.3021, 143, 193
2.2960, -0.0153, -0.2080, -0.0629, 0.4222, -0.0143, 0.8762, 496081, 0.0443, -0.3127, -0.1035, -0.0339, -0.0980, 0.1108, 0.3021, 143, 193
2.3280, 0.2301, -0.4954, -0.0648, 0.4133, -0.0154, 0.8755, 496101, 0.0443, -0.3127, -0.1034, -0.0338, -0.0982, 0.1108, 0.2913, 139, 196
2.3430, -0.3172, -0.1089, -0.2387, 0.3922, -0.0166, 0.8749, 496141, 0.0443, -0.3127, -0.1034, -0.0338, -0.0981, 0.1108, 0.2682, 134, 197
2.3590, -0.3172, -0.1089, -0.2387, 0.3922, -0.0166, 0.8749, 496141, 0.0443, -0.3127, -0.1034, -0.0339, -0.0981, 0.1108, 0.2682, 134, 197
2.3740, -0.0564, -0.6252, 0.1333, 0.3796, -0.0157, 0.8742, 496161, 0.0444, -0.3127, -0.1034, -0.0339, -0.0979, 0.1107, 0.2560, 145, 188
2.4060, 0.1148, -0.3776, 0.0339, 0.3566, -0.0168, 0.8737, 496201, 0.0443, -0.3127, -0.1035, -0.0340, -0.0981, 0.1108, 0.2302, 132, 197
2.4210, 0.1148, -0.3776, 0.0339, 0.3566, -0.0168, 0.8737, 496201, 0.0443, -0.3126, -0.1034, -0.0338, -0.0982, 0.1108, 0.2302, 132, 197
2.4370, -0.0669, -0.1395, -0.1261, 0.3349, -0.0147, 0.8735, 496241, 0.0444, -0.3127, -0.1034, -0.0338, -0.0979, 0.1107, 0.2027, 141, 189
2.4680, 0.2107, -0.6564, 0.1508, 0.3255, -0.0152, 0.8732, 496261, 0.0443, -0.3127, -0.1034, -0.0339, -0.0982, 0.1107, 0.1885, 139, 189
2.4840, 0.2107, -0.6564, 0.1508, 0.3255, -0.0152, 0.8732, 496261, 0.0444, -0.3127, -0.1034, -0.0338, -0.0979, 0.1108, 0.1885, 139, 189
2.4990, 0.1511, -0.7365, -0.0271, 0.2960, -0.0133, 0.8723, 496301, 0.0443, -0.3127, -0.1034, -0.0338, -0.0980, 0.1108, 0.1590, 140, 187
2.5150, 0.1511, -0.7365, -0.0271, 0.2960, -0.0133, 0.8723, 496301, 0.0443, -0.3127, -0.1034, -0.0339, -0.0982, 0.1108, 0.1590, 140, 187
2.5460, -0.0296, -0.8636, 0.1435, 0.2831, -0.0134, 0.8725, 496321, 0.0443, -0.3127, -0.1034, -0.0339, -0.0981, 0.1109, 0.1438, 142, 185
2.5620, -0.0153, -1.1759, 0.1279, 0.2505, -0.0168, 0.8713, 496361, 0.0443, -0.3127, -0.1034, -0.0339, -0.0981, 0.1107, 0.1127, 144, 181
2.5780, -0.0153, -1.1759, 0.1279, 0.2505, -0.0168, 0.8713, 496361, 0.0443, -0.3127, -0.1034, -0.0338, -0.0981, 0.1108, 0.1127, 144, 181
2.6090, -0.3112, -0.8203, -0.1755, 0.2101, -0.0168, 0.8706, 496401, 0.0443, -0.3127, -0.1034, -0.0339, -0.0980, 0.1108, 0.0808, 134, 188
2.6240, 0.2083, -1.4218, 0.1629, 0.1897, -0.0150, 0.8707, 496421, 0.0443, -0.3127, -0.1034, -0.0339, -0.0983, 0.1107, 0.0647, 142, 181
2.6400, 0.2083, -1.4218, 0.1629, 0.1897, -0.0150, 0.8707, 496421, 0.0444, -0.3127, -0.1034, -0.0338, -0.0980, 0.1108, 0.0647, 142, 181
2.6560, 0.4290, -1.1920, 0.0594, 0.1492, -0.0147, 0.8702, 496461, 0.0443, -0.3127, -0.1034, -0.0338, -0.0982, 0.1107, 0.0320, 146, 176
2.6870, 0.3586, -1.4146, -0.0371, 0.1248, -0.0147, 0.8702, 496481, 0.0444, -0.3127, -0.1034, -0.0339, -0.0981, 0.1108, 0.0156, 162, 161
2.7020, 0.3586, -1.4146, -0.0371, 0.1248, -0.0147, 0.8702, 496481, 0.0443, -0.3127, -0.1034, -0.0339, -0.0981, 0.1109, 0.0156, 162, 161
2.7180, 0.1121, -1.0445, 0.1890, 0.0833, -0.0154, 0.8693, 496521, 0.0443, -0.3127, -0.1034, -0.0339, -0.0983, 0.1108, -0.0173, 146, 175
2.7490, -0.1653, -0.4370, -0.1212, 0.0654, -0.0155, 0.8692, 496541, 0.0443, -0.3127, -0.1034, -0.0338, -0.0981, 0.1109, -0.0337, 151, 171
2.7650, -0.1653, -0.4370, -0.1212, 0.0654, -0.0155, 0.8692, 496541, 0.0443, -0.3127, -0.1034, -0.0338, -0.0982, 0.1107, -0.0337, 151, 171
2.7810, 0.4400, -1.1945, -0.0005, 0.0457, -0.0148, 0.8685, 496561, 0.0443, -0.3127, -0.1034, -0.0339, -0.0981, 0.1109, -0.0500, 152, 169
2.7960, 0.4400, -1.1945, -0.0005, 0.0457, -0.0148, 0.8685, 496561, 0.0444, -0.3126, -0.1033, -0.0338, -0.0979, 0.1107, -0.0500, 152, 169
2.8270, -0.4620, -0.4330, -0.3016, 0.0035, -0.0169, 0.8676, 496601, 0.0443, -0.3127, -0.1034, -0.0339, -0.0982, 0.1109, -0.0825, 145, 175
2.8430, 0.1158, -1.3399, 0.0495, -0.0374, -0.0168, 0.8674, 496641, 0.0443, -0.3127, -0.1034, -0.0338, -0.0981, 0.1108, -0.1143, 166, 156
2.8590, 0.1158, -1.3399, 0.0495, -0.0374, -0.0168, 0.8674, 496641, 0.0443, -0.3127, -0.1034, -0.0338, -0.0982, 0.1108, -0.1143, 166, 156
2.8900, -0.1516, -0.7674, -0.2492, -0.0576, -0.0187, 0.8669, 496661, 0.0443, -0.3127, -0.1034, -0.0339, -0.0981, 0.1107, -0.1299, 156, 166
2.9060, -0.1013, -0.7440, -0.1236, -0.0948, -0.0199, 0.8664, 496701, 0.0443, -0.3126, -0.1034, -0.0338, -0.0982, 0.1108, -0.1605, 162, 160
2.9210, -0.1013, -0.7440, -0.1236, -0.0948, -0.0199, 0.8664, 496701, 0.0443, -0.3127, -0.1035, -0.0339, -0.0980, 0.1108, -0.1605, 162, 160
2.9370, -0.0449, -0.6639, -0.1505, -0.1105, -0.0199, 0.8660, 496721, 0.0443, -0.3127, -0.1034, -0.0339, -0.0981, 0.1108, -0.1754, 155, 167
2.9680, -0.0366, -0.3349, -0.1035, -0.1491, -0.0215, 0.8655, 496761, 0.0443, -0.3127, -0.1034, -0.0338, -0.0980, 0.1107, -0.2041, 161, 163
2.9840, -0.0366, -0.3349, -0.1035, -0.1491, -0.0215, 0.8655, 496761, 0.0443, -0.3127, -0.1034, -0.0339, -0.0981, 0.1108, -0.2041, 161, 163
2.9990, 0.0220, -1.1826, 0.1387, -0.1791, -0.0232, 0.8655, 496801, 0.0443, -0.3127, -0.1034, -0.0338, -0.0981, 0.1108, -0.2315, 167, 157
3.0310, 0.0220, -1.1826, 0.1387, -0.1791, -0.0232, 0.8655, 496801, 0.0443, -0.3127, -0.1034, -0.0338, -0.0981, 0.1109, -0.2315, 167, 157
3.0460, -0.0723, -0.9281, 0.0599, -0.1955, -0.0243, 0.8657, 496821, 0.0443, -0.3127, -0.1034, -0.0340, -0.0982, 0.1108, -0.2446, 167, 158
3.0620, -0.0242, -0.6142, -0.0374, -0.2119, -0.0243, 0.8648, 496841, 0.0444, -0.3127, -0.1034, -0.0338, -0.0979, 0.1108, -0.2572, 160, 165
3.0770, -0.0242, -0.6142, -0.0374, -0.2119, -0.0243, 0.8648, 496841, 0.0443, -0.3127, -0.1034, -0.0338, -0.0982, 0.1108, -0.2572, 160, 165
3.1090, -0.0433, -0.4822, -0.0409, -0.2419, -0.0250, 0.8653, 496881, 0.0443, -0.3127, -0.1034, -0.0338, -0.0980, 0.1109, -0.2812, 169, 158
3.1240, 0.1769, -1.1458, 0.2975, -0.2698, -0.0246, 0.8650, 496921, 0.0443, -0.3127, -0.1035, -0.0339, -0.0980, 0.1108, -0.3031, 176, 152
3.1400, 0.1769, -1.1458, 0.2975, -0.2698, -0.0246, 0.8650, 496921, 0.0443, -0.3126, -0.1034, -0.0339, -0.0982, 0.1107, -0.3031, 176, 152
3.1560, -0.0387, -0.5771, -0.2505, -0.2854, -0.0241, 0.8643, 496941, 0.0443, -0.3127, -0.1034, -0.0338, -0.0980, 0.1108, -0.3133, 168, 161
3.1870, 0.2188, -0.7174, 0.2825, -0.3183, -0.0262, 0.8641, 496981, 0.0443, -0.3127, -0.1034, -0.0339, -0.0981, 0.1107, -0.3320, 172, 159
3.2020, 0.2188, -0.7174, 0.2825, -0.3183, -0.0262, 0.8641, 496981, 0.0443, -0.3127, -0.1034, -0.0338, -0.0980, 0.1108, -0.3320, 172, 159
3.2180, -0.3629, 0.0226, 0.0051, -0.3217, -0.0271, 0.8636, 497001, 0.0443, -0.3127, -0.1034, -0.0339, -0.0980, 0.1109, -0.3405, 162, 169
3.2490, 0.1287, -0.3440, -0.1016, -0.3271, -0.0276, 0.8624, 497041, 0.0443, -0.3127, -0.1034, -0.0338, -0.0982, 0.1108, -0.3557, 161, 171
3.2650, 0.1287, -0.3440, -0.1016, -0.3271, -0.0276, 0.8624, 497041, 0.0443, -0.3127, -0.1034, -0.0339, -0.0980, 0.1109, -0.3557, 161, 171
3.2810, 0.0400, -0.3481, -0.0871, -0.3526, -0.0288, 0.8631, 497081, 0.0443, -0.3127, -0.1034, -0.0338, -0.0981, 0.1108, -0.3684, 175, 159
3.2960, 0.0400, -0.3481, -0.0871, -0.3526, -0.0288, 0.8631, 497081, 0.0443, -0.3127, -0.1034, -0.0338, -0.0981, 0.1108, -0.3684, 175, 159
3.3270, -0.1037, 0.0986, -0.2975, -0.3615, -0.0281, 0.8622, 497101, 0.0444, -0.3127, -0.1034, -0.0338, -0.0978, 0.1108, -0.3737, 162, 172
3.3430, -0.3989, 0.0341, 0.0239, -0.3700, -0.0279, 0.8629, 497141, 0.0443, -0.3127, -0.1034, -0.0338, -0.0982, 0.1107, -0.3825, 171, 164
3.3590, -0.3989, 0.0341, 0.0239, -0.3700, -0.0279, 0.8629, 497141, 0.0443, -0.3127, -0.1034, -0.0339, -0.0981, 0.1108, -0.3825, 171, 164
3.3900, 0.4470, -0.4682, 0.0470, -0.3815, -0.0283, 0.8618, 497181, 0.0443, -0.3126, -0.1033, -0.0338, -0.0982, 0.1106, -0.3886, 174, 161
3.4050, -0.3838, -0.5239, 0.0314, -0.3934, -0.0293, 0.8620, 497201, 0.0443, -0.3127, -0.1034, -0.0339, -0.0981, 0.1108, -0.3906, 181, 155
3.4210, -0.3838, -0.5239, 0.0314, -0.3934, -0.0293, 0.8620, 497201, 0.0443, -0.3127, -0.1034, -0.0338, -0.0980, 0.1108, -0.3906, 181, 155
3.4370, -0.2322, 0.2674, -0.1492, -0.4051, -0.0300, 0.8610, 497241, 0.0443, -0.3127, -0.1034, -0.0339, -0.0981, 0.1108, -0.3926, 169, 169
3.4680, 0.0801, -0.3048, 0.3314, -0.4049, -0.0311, 0.8615, 497261, 0.0443, -0.3127, -0.1034, -0.0338, -0.0981, 0.1108, -0.3926, 178, 160
3.4840, 0.0801, -0.3048, 0.3314, -0.4049, -0.0311, 0.8615, 497261, 0.0444, -0.3127, -0.1034, -0.0338, -0.0979, 0.1108, -0.3926, 178, 160
3.4990, -0.0242, 0.1989, -0.0486, -0.3997, -0.0328, 0.8604, 497301, 0.0443, -0.3127, -0.1034, -0.0339, -0.0981, 0.1108, -0.3905, 162, 175
3.5300, -0.3158, -0.1029, -0.1583, -0.4074, -0.0328, 0.8604, 497341, 0.0443, -0.3127, -0.1034, -0.0339, -0.0982, 0.1107, -0.3856, 176, 161
3.5460, -0.3158, -0.1029, -0.1583, -0.4074, -0.0328, 0.8604, 497341, 0.0443, -0.3127, -0.1034, -0.0339, -0.0980, 0.1109, -0.3856, 176, 161
3.5620, 0.2182, -0.0599, -0.0667, -0.4114, -0.0321, 0.8599, 497361, 0.0443, -0.3127, -0.1034, -0.0338, -0.0982, 0.1108, -0.3821, 176, 162
3.5770, 0.2182, -0.0599, -0.0667, -0.4114, -0.0321, 0.8599, 497361, 0.0444, -0.3127, -0.1034, -0.0338, -0.0979, 0.1108, -0.3821, 176, 162
3.6090, -0.0288, -0.0661, 0.0212, -0.4079, -0.0309, 0.8592, 497401, 0.0443, -0.3127, -0.1035, -0.0339, -0.0981, 0.1108, -0.3732, 179, 158
3.6240, -0.1634, 0.9348, -0.3379, -0.3978, -0.0309, 0.8580, 497421, 0.0443, -0.3127, -0.1034, -0.0338, -0.0982, 0.1108, -0.3678, 159, 178
3.6400, -0.1634, 0.9348, -0.3379, -0.3978, -0.0309, 0.8580, 497421, 0.0443, -0.3127, -0.1034, -0.0338, -0.0981, 0.1109, -0.3678, 159, 178
3.6550, 0.3693, 0.2392, 0.1642, -0.3887, -0.0297, 0.8577, 497441, 0.0443, -0.3127, -0.1034, -0.0338, -0.0983, 0.1107, -0.3617, 164, 173
3.6870, -0.0169, 0.4163, -0.1787, -0.3803, -0.0278, 0.8559, 497481, 0.0443, -0.3127, -0.1034, -0.0339, -0.0980, 0.1109, -0.3476, 167, 169
3.7020, -0.0169, 0.4163, -0.1787, -0.3803, -0.0278, 0.8559, 497481, 0.0443, -0.3127, -0.1034, -0.0339, -0.0981, 0.1108, -0.3476, 167, 169
3.7180, 0.2317, 0.0374, 0.1355, -0.3766, -0.0269, 0.8557, 497501, 0.0444, -0.3126, -0.1034, -0.0339, -0.0981, 0.1107, -0.3397, 177, 158
3.7490, 0.0486, 0.4940, -0.2443, -0.3651, -0.0264, 0.8547, 497541, 0.0443, -0.3127, -0.1034, -0.0338, -0.0980, 0.1108, -0.3220, 170, 165
3.7650, 0.0486, 0.4940, -0.2443, -0.3651, -0.0264, 0.8547, 497541, 0.0443, -0.3127, -0.1034, -0.0339, -0.0982, 0.1108, -0.3220, 170, 165
3.7800, 0.1747, 0.0344, 0.2975, -0.3515, -0.0265, 0.8542, 497581, 0.0443, -0.3127, -0.1034, -0.0339, -0.0980, 0.1108, -0.3021, 183, 149
3.7960, 0.1747, 0.0344, 0.2975, -0.3515, -0.0265, 0.8542, 497581, 0.0443, -0.3127, -0.1034, -0.0339, -0.0982, 0.1107, -0.3021, 183, 149
3.8270, -0.0691, 0.8276, -0.3422, -0.3426, -0.0262, 0.8536, 497601, 0.0444, -0.3126, -0.1034, -0.0338, -0.0982, 0.1108, -0.2913, 166, 167
3.8430, -0.1145, 0.6386, 0.0917, -0.3176, -0.0272, 0.8529, 497641, 0.0443, -0.3127, -0.1034, -0.0339, -0.0980, 0.1107, -0.2682, 173, 158
3.8580, -0.1145, 0.6386, 0.0917, -0.3176, -0.0272, 0.8529, 497641, 0.0443, -0.3127, -0.1034, -0.0338, -0.0983, 0.1108, -0.2682, 173, 158
3.8900, -0.0089, 0.6002, -0.1056, -0.3060, -0.0274, 0.8522, 497661, 0.0444, -0.3127, -0.1034, -0.0338, -0.0980, 0.1109, -0.2560, 168, 163
3.9050, -0.0589, 0.1903, 0.2637, -0.2906, -0.0260, 0.8517, 497701, 0.0443, -0.3127, -0.1034, -0.0338, -0.0982, 0.1107, -0.2302, 180, 148
3.9210, -0.0589, 0.1903, 0.2637, -0.2906, -0.0260, 0.8517, 497701, 0.0444, -0.3127, -0.1034, -0.0339, -0.0981, 0.1108, -0.2302, 180, 148
3.9370, -0.0387, 1.1445, -0.1766, -0.2644, -0.0267, 0.8507, 497741, 0.0443, -0.3127, -0.1034, -0.0339, -0.0980, 0.1108, -0.2027, 161, 167
3.9680, 0.3774, 0.4069, 0.3572, -0.2477, -0.0278, 0.8508, 497761, 0.0443, -0.3127, -0.1034, -0.0339, -0.0981, 0.1108, -0.1885, 166, 161
3.9830, 0.3774, 0.4069, 0.3572, -0.2477, -0.0278, 0.8508, 497761, 0.0443, -0.3127, -0.1034, -0.0338, -0.0981, 0.1109, -0.1885, 166, 161
3.9990, 0.2215, 0.6045, -0.1484, -0.2208, -0.0278, 0.8491, 497801, 0.0443, -0.3127, -0.1034, -0.0339, -0.0981, 0.1107, -0.1590, 166, 161
4.0300, 0.2892, 0.4252, 0.1086, -0.2100, -0.0265, 0.8489, 497821, 0.0443, -0.3127, -0.1034, -0.0339, -0.0982, 0.1107, -0.1438, 173, 152
4.0460, 0.2892, 0.4252, 0.1086, -0.2100, -0.0265, 0.8489, 497821, 0.0443, -0.3127, -0.1034, -0.0338, -0.0981, 0.1108, -0.1438, 173, 152
4.0620, 0.0868, 1.0009, -0.1814, -0.1824, -0.0260, 0.8481, 497861, 0.0443, -0.3127, -0.1034, -0.0339, -0.0980, 0.1107, -0.1127, 162, 162
4.0770, 0.0868, 1.0009, -0.1814, -0.1824, -0.0260, 0.8481, 497861, 0.0443, -0.3127, -0.1034, -0.0338, -0.0981, 0.1108, -0.1127, 162, 162
4.1080, 0.2043, 0.5843, 0.2922, -0.1494, -0.0255, 0.8470, 497901, 0.0444, -0.3127, -0.1033, -0.0338, -0.0980, 0.1107, -0.0808, 171, 152
4.1240, -0.1812, 1.0668, -0.2790, -0.1318, -0.0257, 0.8461, 497921, 0.0443, -0.3127, -0.1035, -0.0339, -0.0980, 0.1108, -0.0647, 159, 164
4.1400, -0.1812, 1.0668, -0.2790, -0.1318, -0.0257, 0.8461, 497921, 0.0443, -0.3127, -0.1034, -0.0339, -0.0982, 0.1108, -0.0647, 159, 164
4.1550, 0.2260, 0.1887, 0.2906, -0.1070, -0.0253, 0.8456, 497961, 0.0443, -0.3127, -0.1034, -0.0338, -0.0979, 0.1108, -0.0320, 176, 146
4.1870, -0.3414, 1.4251, -0.0218, -0.0892, -0.0250, 0.8451, 497981, 0.0443, -0.3127, -0.1034, -0.0339, -0.0982, 0.1108, -0.0156, 158, 164
4.2020, -0.3414, 1.4251, -0.0218, -0.0892, -0.0250, 0.8451, 497981, 0.0443, -0.3127, -0.1033, -0.0339, -0.0981, 0.1107, -0.0156, 158, 164
4.2180, 0.2669, 0.6459, -0.0102, -0.0408, -0.0220, 0.8439, 498021, 0.0443, -0.3127, -0.1034, -0.0339, -0.0981, 0.1108, 0.0173, 161, 161
4.2490, -0.3411, 0.4521, 0.0777, -0.0286, -0.0234, 0.8439, 498061, 0.0443, -0.3127, -0.1034, -0.0338, -0.0981, 0.1107, 0.0500, 174, 146
4.2650, -0.3411, 0.4521, 0.0777, -0.0286, -0.0234, 0.8439, 498061, 0.0444, -0.3126, -0.1034, -0.0339, -0.0979, 0.1108, 0.0500, 174, 146
4.2800, 0.4776, 1.3151, -0.0024, -0.0122, -0.0220, 0.8435, 498081, 0.0443, -0.3127, -0.1034, -0.0339, -0.0981, 0.1108, 0.0663, 162, 159
4.2960, 0.4776, 1.3151, -0.0024, -0.0122, -0.0220, 0.8435, 498081, 0.0444, -0.3126, -0.1033, -0.0338, -0.0980, 0.1107, 0.0663, 162, 159
4.3270, -0.0038, 1.1181, -0.0599, 0.0375, -0.0209, 0.8418, 498121, 0.0443, -0.3127, -0.1034, -0.0339, -0.0979, 0.1109, 0.0985, 152, 170
4.3430, -0.0038, 1.1181, -0.0599, 0.0375, -0.0209, 0.8418, 498121, 0.0443, -0.3127, -0.1034, -0.0338, -0.0982, 0.1107, 0.0985, 152, 170
4.3580, 0.1070, -0.0395, 0.3333, 0.0497, -0.0199, 0.8421, 498141, 0.0443, -0.3127, -0.1034, -0.0339, -0.0981, 0.1110, 0.1143, 179, 141
4.3900, 0.1352, 1.0630, -0.1554, 0.0728, -0.0190, 0.8419, 498181, 0.0443, -0.3127, -0.1034, -0.0338, -0.0982, 0.1107, 0.1453, 159, 163
4.4050, 0.1352, 1.0630, -0.1554, 0.0728, -0.0190, 0.8419, 498181, 0.0444, -0.3127, -0.1034, -0.0339, -0.0980, 0.1108, 0.1453, 159, 163
4.4210, -0.1282, 0.6701, 0.0739, 0.1141, -0.0175, 0.8412, 498221, 0.0443, -0.3127, -0.1034, -0.0339, -0.0980, 0.1107, 0.1754, 160, 163
4.4360, -0.1282, 0.6701, 0.0739, 0.1141, -0.0175, 0.8412, 498221, 0.0443, -0.3127, -0.1034, -0.0338, -0.0982, 0.1108, 0.1754, 160, 163
4.4680, -0.5359, 0.4873, 0.0890, 0.1246, -0.0171, 0.8414, 498241, 0.0444, -0.3127, -0.1034, -0.0337, -0.0979, 0.1109, 0.1899, 170, 153
4.4830, 0.1734, 1.1160, -0.1876, 0.1515, -0.0150, 0.8404, 498281, 0.0442, -0.3127, -0.1034, -0.0338, -0.0982, 0.1107, 0.2180, 159, 165
4.4990, 0.1734, 1.1160, -0.1876, 0.1515, -0.0150, 0.8404, 498281, 0.0443, -0.3127, -0.1034, -0.0339, -0.0981, 0.1109, 0.2180, 159, 165
4.5300, -0.0497, 0.9824, 0.0175, 0.1686, -0.0148, 0.8399, 498301, 0.0443, -0.3127, -0.1034, -0.0339, -0.0980, 0.1108, 0.2315, 160, 164
4.5460, -0.1046, 0.8227, -0.2387, 0.1932, -0.0143, 0.8390, 498341, 0.0443, -0.3127, -0.1034, -0.0339, -0.0981, 0.1107, 0.2572, 165, 160
4.5610, -0.1046, 0.8227, -0.2387, 0.1932, -0.0143, 0.8390, 498341, 0.0444, -0.3127, -0.1034, -0.0339, -0.0980, 0.1109, 0.2572, 165, 160
4.5770, 0.0548, 0.7383, 0.2088, 0.2197, -0.0126, 0.8386, 498381, 0.0443, -0.3127, -0.1034, -0.0339, -0.0982, 0.1107, 0.2812, 161, 165
4.6080, -0.4341, 1.0732, -0.0223, 0.2374, -0.0134, 0.8385, 498401, 0.0444, -0.3127, -0.1034, -0.0339, -0.0980, 0.1109, 0.2924, 162, 164
4.6240, -0.4341, 1.0732, -0.0223, 0.2374, -0.0134, 0.8385, 498401, 0.0443, -0.3127, -0.1034, -0.0338, -0.0982, 0.1107, 0.2924, 162, 164
4.6400, 0.2927, 0.3631, 0.0806, 0.2604, -0.0110, 0.8374, 498441, 0.0443, -0.3127, -0.1034, -0.0338, -0.0981, 0.1109, 0.3133, 168, 159
4.6710, -0.3919, 0.4346, 0.1244, 0.2700, -0.0110, 0.8372, 498461, 0.0443, -0.3127, -0.1034, -0.0338, -0.0981, 0.1109, 0.3229, 172, 156
4.6860, -0.3919, 0.4346, 0.1244, 0.2700, -0.0110, 0.8372, 498461, 0.0443, -0.3127, -0.1034, -0.0339, -0.0981, 0.1108, 0.3229, 172, 156
4.7020, 0.1535, 0.9423, -0.2419, 0.2915, -0.0119, 0.8365, 498501, 0.0443, -0.3127, -0.1034, -0.0339, -0.0980, 0.1108, 0.3405, 160, 169
4.7180, 0.1535, 0.9423, -0.2419, 0.2915, -0.0119, 0.8365, 498501, 0.0443, -0.3127, -0.1033, -0.0338, -0.0982, 0.1107, 0.3405, 160, 169
4.7490, -0.0742, 0.7123, -0.1279, 0.3094, -0.0103, 0.8362, 498541, 0.0443, -0.3127, -0.1034, -0.0339, -0.0980, 0.1109, 0.3557, 165, 166
4.7640, -0.0761, 0.8588, -0.1180, 0.3194, -0.0105, 0.8353, 498561, 0.0443, -0.3127, -0.1034, -0.0338, -0.0982, 0.1108, 0.3623, 161, 171
4.7800, -0.0761, 0.8588, -0.1180, 0.3194, -0.0105, 0.8353, 498561, 0.0443, -0.3127, -0.1034, -0.0339, -0.0980, 0.1107, 0.3623, 161, 171
4.7960, -0.4550, 0.6599, -0.1177, 0.3393, -0.0094, 0.8353, 498601, 0.0444, -0.3127, -0.1034, -0.0339, -0.0980, 0.1107, 0.3737, 169, 164
4.8270, -0.0882, 0.5483, -0.0661, 0.3470, -0.0108, 0.8346, 498621, 0.0443, -0.3127, -0.1034, -0.0338, -0.0982, 0.1107, 0.3785, 159, 174
4.8430, -0.0882, 0.5483, -0.0661, 0.3470, -0.0108, 0.8346, 498621, 0.0443, -0.3127, -0.1034, -0.0339, -0.0979, 0.1107, 0.3785, 159, 174
4.8580, -0.4287, 0.4534, -0.0968, 0.3545, -0.0108, 0.8346, 498661, 0.0443, -0.3127, -0.1034, -0.0337, -0.0983, 0.1107, 0.3859, 172, 162
4.8890, -0.0704, 0.2123, 0.0906, 0.3686, -0.0084, 0.8341, 498701, 0.0443, -0.3127, -0.1034, -0.0337, -0.0981, 0.1109, 0.3906, 169, 165
4.9050, -0.0704, 0.2123, 0.0906, 0.3686, -0.0084, 0.8341, 498701, 0.0443, -0.3127, -0.1034, -0.0338, -0.0982, 0.1107, 0.3906, 169, 165
4.9210, -0.2500, 0.5666, -0.0124, 0.3761, -0.0082, 0.8341, 498721, 0.0443, -0.3127, -0.1034, -0.0339, -0.0982, 0.1108, 0.3920, 164, 171
4.9360, -0.2500, 0.5666, -0.0124, 0.3761, -0.0082, 0.8341, 498721, 0.0443, -0.3127, -0.1034, -0.0339, -0.0980, 0.1109, 0.3920, 164, 171
4.9680, 0.0460, -0.1164, 0.1793, 0.3812, -0.0047, 0.8334, 498761, 0.0443, -0.3127, -0.1034, -0.0338, -0.0984, 0.1107, 0.3926, 172, 164
4.9830, -0.1688, 0.0935, 0.0237, 0.3794, -0.0035, 0.8332, 498781, 0.0443, -0.3127, -0.1034, -0.0339, -0.0980, 0.1109, 0.3919, 176, 160
4.9990, -0.1688, 0.0935, 0.0237, 0.3794, -0.0035, 0.8332, 498781, 0.0443, -0.3127, -0.1034, -0.0337, -0.0984, 0.1107, 0.3919, 176, 160
5.0300, -0.0030, 0.4099, -0.0890, 0.3798, -0.0030, 0.8327, 498801, 0.0443, -0.3127, -0.1034, -0.0338, -0.0981, 0.1108, 0.3905, 162, 174
5.0460, -0.0194, 0.4349, -0.0352, 0.3824, -0.0035, 0.8327, 498841, 0.0443, -0.3127, -0.1034, -0.0338, -0.0980, 0.1108, 0.3856, 166, 169
5.0610, -0.0194, 0.4349, -0.0352, 0.3824, -0.0035, 0.8327, 498841, 0.0443, -0.3127, -0.1034, -0.0338, -0.0982, 0.1108, 0.3856, 166, 169
5.0770, -0.1390, 0.2924, -0.0804, 0.3859, -0.0051, 0.8315, 498861, 0.0443, -0.3126, -0.1034, -0.0339, -0.0981, 0.1109, 0.3821, 162, 174
5.1080, -0.1718, 0.1849, -0.2645, 0.3834, -0.0065, 0.8306, 498901, 0.0443, -0.3127, -0.1034, -0.0338, -0.0982, 0.1107, 0.3732, 168, 168
5.1240, -0.1718, 0.1849, -0.2645, 0.3834, -0.0065, 0.8306, 498901, 0.0444, -0.3127, -0.1034, -0.0339, -0.0980, 0.1107, 0.3732, 168, 168
5.1390, 0.0976, -0.2285, -0.0532, 0.3794, -0.0065, 0.8296, 498921, 0.0443, -0.3126, -0.1034, -0.0338, -0.0982, 0.1108, 0.3678, 169, 167
5.1710, -0.4768, 0.3661, -0.3107, 0.3695, -0.0051, 0.8292, 498961, 0.0442, -0.3127, -0.1034, -0.0338, -0.0982, 0.1108, 0.3550, 159, 175
5.1860, -0.4768, 0.3661, -0.3107, 0.3695, -0.0051, 0.8292, 498961, 0.0443, -0.3127, -0.1034, -0.0339, -0.0980, 0.1107, 0.3550, 159, 175
5.2020, 0.3733, -0.4999, 0.0672, 0.3564, -0.0026, 0.8287, 499001, 0.0444, -0.3127, -0.1034, -0.0338, -0.0979, 0.1107, 0.3397, 176, 157
5.2180, 0.3733, -0.4999, 0.0672, 0.3564, -0.0026, 0.8287, 499001, 0.0443, -0.3127, -0.1035, -0.0339, -0.0982, 0.1108, 0.3397, 176, 157
5.2490, -0.5491, 0.1059, -0.1744, 0.3487, -0.0049, 0.8280, 499021, 0.0443, -0.3127, -0.1034, -0.0338, -0.0980, 0.1109, 0.3311, 160, 173
5.2640, 0.2922, -0.4884, 0.1271, 0.3382, -0.0058, 0.8276, 499041, 0.0443, -0.3127, -0.1035, -0.0339, -0.0981, 0.1108, 0.3220, 169, 164
5.2800, 0.2922, -0.4884, 0.1271, 0.3382, -0.0058, 0.8276, 499041, 0.0443, -0.3126, -0.1034, -0.0338, -0.0981, 0.1108, 0.3220, 169, 164
5.2960, 0.1185, -0.0562, -0.0589, 0.3201, -0.0042, 0.8268, 499081, 0.0443, -0.3127, -0.1034, -0.0338, -0.0981, 0.1108, 0.3021, 166, 166
5.3270, 0.1406, -0.8147, 0.1683, 0.3018, -0.0044, 0.8264, 499121, 0.0443, -0.3127, -0.1034, -0.0338, -0.0981, 0.1107, 0.2800, 173, 157
5.3420, 0.1406, -0.8147, 0.1683, 0.3018, -0.0044, 0.8264, 499121, 0.0443, -0.3126, -0.1033, -0.0338, -0.0980, 0.1108, 0.2800, 173, 157
5.3580, 0.0357, -0.5171, 0.0425, 0.2843, -0.0066, 0.8248, 499161, 0.0444, -0.3127, -0.1035, -0.0339, -0.0980, 0.1108, 0.2560, 163, 166
5.3890, 0.1857, -0.8222, 0.0258, 0.2737, -0.0070, 0.8254, 499181, 0.0443, -0.3126, -0.1034, -0.0338, -0.0983, 0.1107, 0.2433, 171, 157
5.4050, 0.1857, -0.8222, 0.0258, 0.2737, -0.0070, 0.8254, 499181, 0.0444, -0.3127, -0.1034, -0.0338, -0.0979, 0.1109, 0.2433, 171, 157
5.4210, 0.1833, -0.7942, 0.0874, 0.2539, -0.0087, 0.8240, 499221, 0.0443, -0.3127, -0.1034, -0.0339, -0.0982, 0.1107, 0.2166, 164, 164
5.4360, 0.1833, -0.7942, 0.0874, 0.2539, -0.0087, 0.8240, 499221, 0.0443, -0.3126, -0.1034, -0.0339, -0.0981, 0.1107, 0.2166, 164, 164
5.4670, -0.0618, -0.7252, 0.0156, 0.2391, -0.0087, 0.8240, 499241, 0.0443, -0.3127, -0.1034, -0.0338, -0.0980, 0.1108, 0.2027, 173, 153
5.4830, 0.2193, -0.6875, 0.2924, 0.2126, -0.0070, 0.8231, 499281, 0.0443, -0.3127, -0.1034, -0.0338, -0.0982, 0.1107, 0.1739, 165, 160
5.4990, 0.2193, -0.6875, 0.2924, 0.2126, -0.0070, 0.8231, 499281, 0.0443, -0.3127, -0.1034, -0.0339, -0.0981, 0.1108, 0.1739, 165, 160
5.5300, -0.1548, -0.1755, -0.2303, 0.1906, -0.0072, 0.8212, 499321, 0.0443, -0.3127, -0.1034, -0.0339, -0.0980, 0.1109, 0.1438, 150, 175
5.5460, 0.3341, -1.0109, 0.1250, 0.1752, -0.0070, 0.8212, 499341, 0.0443, -0.3127, -0.1034, -0.0338, -0.0981, 0.1108, 0.1284, 169, 155
5.5610, 0.3341, -1.0109, 0.1250, 0.1752, -0.0070, 0.8212, 499341, 0.0443, -0.3127, -0.1034, -0.0339, -0.0980, 0.1109, 0.1284, 169, 155
5.5770, -0.0314, -0.9867, -0.0839, 0.1333, -0.0052, 0.8205, 499381, 0.0443, -0.3127, -0.1034, -0.0338, -0.0982, 0.1107, 0.0969, 162, 161
5.6080, 0.1419, -0.7840, -0.0124, 0.1166, -0.0044, 0.8201, 499401, 0.0443, -0.3127, -0.1034, -0.0339, -0.0981, 0.1109, 0.0808, 166, 156
5.6240, 0.1419, -0.7840, -0.0124, 0.1166, -0.0044, 0.8201, 499401, 0.0443, -0.3127, -0.1034, -0.0338, -0.0981, 0.1108, 0.0808, 166, 156
5.6390, -0.0460, -0.2422, -0.1016, 0.0925, -0.0051, 0.8194, 499441, 0.0443, -0.3127, -0.1034, -0.0338, -0.0981, 0.1107, 0.0484, 161, 162
5.6710, 0.1742, -1.5269, 0.2312, 0.0607, -0.0045, 0.8187, 499481, 0.0443, -0.3127, -0.1034, -0.0338, -0.0981, 0.1108, 0.0156, 171, 150
5.6860, 0.1742, -1.5269, 0.2312, 0.0607, -0.0045, 0.8187, 499481, 0.0443, -0.3127, -0.1034, -0.0339, -0.0980, 0.1109, 0.0156, 171, 150
5.7020, 0.1742, -1.5269, 0.2312, 0.0607, -0.0045, 0.8187, 499481, 0.0443, -0.3127, -0.1035, -0.0339, -0.0981, 0.1109, 0.0156, 171, 150
5.7170, 0.1742, -1.5269, 0.2312, 0.0607, -0.0045, 0.8187, 499481, 0.0443, -0.3127, -0.1034, -0.0338, -0.0981, 0.1108, 0.0156, 171, 150
5.7490, -0.0919, -0.4978, -0.2967, 0.0232, -0.0063, 0.8173, 499521, 0.0443, -0.3127, -0.1034, -0.0338, -0.0981, 0.1108, -0.0173, 159, 162
5.7640, 0.2548, -1.2474, 0.0390, -0.0066, -0.0068, 0.8170, 499561, 0.0444, -0.3127, -0.1034, -0.0339, -0.0980, 0.1108, -0.0500, 171, 149
5.7800, 0.2548, -1.2474, 0.0390, -0.0066, -0.0068, 0.8170, 499561, 0.0443, -0.3127, -0.1034, -0.0338, -0.0982, 0.1107, -0.0500, 171, 149
5.8110, -0.1156, -0.6695, -0.2298, -0.0241, -0.0063, 0.8163, 499581, 0.0444, -0.3127, -0.1035, -0.0339, -0.0981, 0.1108, -0.0663, 159, 163
5.8270, -0.3685, -0.3685, 0.1040, -0.0550, -0.0065, 0.8161, 499621, 0.0443, -0.3127, -0.1033, -0.0337, -0.0981, 0.1107, -0.0985, 156, 166
5.8420, -0.3685, -0.3685, 0.1040, -0.0550, -0.0065, 0.8161, 499621, 0.0443, -0.3127, -0.1035, -0.0338, -0.0981, 0.1109, -0.0985, 156, 166
5.8580, -0.1696, -0.7096, 0.2236, -0.0621, -0.0072, 0.8159, 499641, 0.0443, -0.3127, -0.1033, -0.0338, -0.0982, 0.1107, -0.1143, 160, 162
5.8890, 0.1642, -1.2794, -0.1470, -0.1018, -0.0063, 0.8140, 499681, 0.0444, -0.3127, -0.1035, -0.0338, -0.0980, 0.1109, -0.1453, 171, 151
5.9050, 0.1642, -1.2794, -0.1470, -0.1018, -0.0063, 0.8140, 499681, 0.0443, -0.3127, -0.1034, -0.0340, -0.0981, 0.1108, -0.1453, 171, 151
5.9200, 0.0559, -0.7004, 0.2247, -0.1347, -0.0086, 0.8137, 499721, 0.0443, -0.3126, -0.1034, -0.0338, -0.0980, 0.1108, -0.1754, 164, 159
5.9520, -0.0452, -0.4048, -0.1347, -0.1436, -0.0093, 0.8133, 499741, 0.0443, -0.3127, -0.1034, -0.0338, -0.0982, 0.1108, -0.1899, 159, 165
5.9670, -0.0452, -0.4048, -0.1347, -0.1436, -0.0093, 0.8133, 499741, 0.0444, -0.3126, -0.1034, -0.0339, -0.0981, 0.1108, -0.1899, 159, 165
5.9830, 0.1083, -1.2775, 0.2871, -0.1785, -0.0099, 0.8123, 499781, 0.0443, -0.3127, -0.1034, -0.0339, -0.0980, 0.1109, -0.2180, 175, 148
5.9990, 0.1083, -1.2775, 0.2871, -0.1785, -0.0099, 0.8123, 499781, 0.0444, -0.3127, -0.1034, -0.0339, -0.0981, 0.1108, -0.2180, 175, 148
6.0300, 0.0723, -0.8133, 0.0589, -0.1977, -0.0108, 0.8125, 499801, 0.0443, -0.3126, -0.1034, -0.0338, -0.0981, 0.1108, -0.2315, 174, 151
6.0450, 0.3994, -0.3588, -0.1196, -0.2178, -0.0127, 0.8107, 499841, 0.0443, -0.3127, -0.1035, -0.0339, -0.0980, 0.1109, -0.2572, 159, 167
6.0610, 0.3994, -0.3588, -0.1196, -0.2178, -0.0127, 0.8107, 499841, 0.0443, -0.3126, -0.1033, -0.0337, -0.0982, 0.1106, -0.2572, 159, 167
6.0770, -0.4368, -0.8319, 0.0212, -0.2498, -0.0143, 0.8093, 499881, 0.0444, -0.3127, -0.1034, -0.0338, -0.0978, 0.1109, -0.2812, 171, 156
6.1080, 0.2282, -0.2516, -0.1785, -0.2635, -0.0143, 0.8091, 499901, 0.0443, -0.3127, -0.1034, -0.0339, -0.0982, 0.1106, -0.2924, 161, 167
6.1240, 0.2282, -0.2516, -0.1785, -0.2635, -0.0143, 0.8091, 499901, 0.0443, -0.3126, -0.1034, -0.0339, -0.0981, 0.1109, -0.2924, 161, 167
6.1390, 0.0320, -0.8582, 0.2556, -0.2850, -0.0145, 0.8079, 499941, 0.0443, -0.3127, -0.1034, -0.0339, -0.0980, 0.1108, -0.3133, 165, 164
6.1700, 0.0573, -0.5604, 0.0118, -0.2978, -0.0152, 0.8079, 499961, 0.0443, -0.3127, -0.1034, -0.0338, -0.0982, 0.1108, -0.3229, 173, 157
6.1860, 0.0573, -0.5604, 0.0118, -0.2978, -0.0152, 0.8079, 499961, 0.0443, -0.3127, -0.1034, -0.0339, -0.0980, 0.1107, -0.3229, 173, 157
6.2020, -0.1185, -0.5521, -0.2075, -0.3114, -0.0161, 0.8074, 499981, 0.0443, -0.3127, -0.1034, -0.0338, -0.0983, 0.1107, -0.3320, 171, 160
6.2170, -0.1185, -0.5521, -0.2075, -0.3114, -0.0161, 0.8074, 499981, 0.0443, -0.3127, -0.1034, -0.0339, -0.0981, 0.1107, -0.3320, 171, 160
6.2490, -0.0637, 0.0427, -0.2131, -0.3341, -0.0192, 0.8077, 500041, 0.0443, -0.3127, -0.1034, -0.0339, -0.0981, 0.1108, -0.3557, 159, 173
6.2640, 0.3478, -0.5402, 0.1492, -0.3424, -0.0175, 0.8076, 500061, 0.0443, -0.3126, -0.1034, -0.0339, -0.0981, 0.1108, -0.3623, 171, 162
6.2800, 0.3478, -0.5402, 0.1492, -0.3424, -0.0175, 0.8076, 500061, 0.0444, -0.3127, -0.1034, -0.0339, -0.0980, 0.1109, -0.3623, 171, 162
6.3110, -0.0602, -0.4663, -0.1185, -0.3670, -0.0175, 0.8069, 500101, 0.0443, -0.3127, -0.1034, -0.0339, -0.0982, 0.1106, -0.3737, 174, 160
6.3270, 0.2392, -0.3723, -0.0718, -0.3766, -0.0162, 0.8062, 500121, 0.0444, -0.3127, -0.1034, -0.0338, -0.0980, 0.1109, -0.3785, 174, 161
6.3420, 0.2392, -0.3723, -0.0718, -0.3766, -0.0162, 0.8062, 500121, 0.0443, -0.3127, -0.1034, -0.0339, -0.0982, 0.1108, -0.3785, 174, 161
6.3580, -0.0073, -0.2002, -0.0849, -0.3889, -0.0175, 0.8067, 500161, 0.0443, -0.3127, -0.1034, -0.0339, -0.0980, 0.1109, -0.3859, 177, 159
6.3890, -0.1011, 0.2518, -0.3053, -0.3906, -0.0182, 0.8056, 500181, 0.0443, -0.3127, -0.1034, -0.0337, -0.0981, 0.1108, -0.3886, 162, 174
6.4050, -0.1011, 0.2518, -0.3053, -0.3906, -0.0182, 0.8056, 500181, 0.0443, -0.3127, -0.1034, -0.0339, -0.0980, 0.1108, -0.3886, 162, 174
6.4200, 0.3669, -0.4526, 0.2981, -0.3929, -0.0182, 0.8056, 500201, 0.0443, -0.3127, -0.1034, -0.0339, -0.0982, 0.1108, -0.3906, 171, 165
6.4520, -0.0277, -0.0814, -0.1524, -0.4014, -0.0183, 0.8051, 500241, 0.0443, -0.3127, -0.1034, -0.0339, -0.0981, 0.1108, -0.3926, 172, 165
6.4670, -0.0277, -0.0814, -0.1524, -0.4014, -0.0183, 0.8051, 500241, 0.0443, -0.3127, -0.1034, -0.0339, -0.0981, 0.1108, -0.3926, 172, 165
6.4830, -0.1916, -0.4806, 0.0618, -0.4180, -0.0173, 0.8046, 500281, 0.0443, -0.3127, -0.1034, -0.0339, -0.0982, 0.1108, -0.3919, 185, 153
6.4980, -0.1916, -0.4806, 0.0618, -0.4180, -0.0173, 0.8046, 500281, 0.0443, -0.3127, -0.1034, -0.0338, -0.0980, 0.1110, -0.3919, 185, 153
6.5300, 0.0997, -0.0099, -0.1986, -0.4239, -0.0166, 0.8041, 500301, 0.0443, -0.3127, -0.1034, -0.0339, -0.0982, 0.1108, -0.3905, 179, 160
6.5450, 0.1677, -0.3352, 0.3776, -0.4259, -0.0173, 0.8037, 500341, 0.0443, -0.3126, -0.1034, -0.0339, -0.0981, 0.1108, -0.3856, 184, 154
6.5610, 0.1677, -0.3352, 0.3776, -0.4259, -0.0173, 0.8037, 500341, 0.0443, -0.3127, -0.1034, -0.0339, -0.0981, 0.1108, -0.3856, 184, 154
6.5770, -0.3900, 0.5088, -0.1951, -0.4238, -0.0185, 0.8032, 500361, 0.0443, -0.3127, -0.1034, -0.0338, -0.0982, 0.1108, -0.3821, 175, 165
6.6080, 0.2392, -0.1693, 0.1306, -0.4198, -0.0187, 0.8022, 500401, 0.0443, -0.3127, -0.1034, -0.0338, -0.0981, 0.1108, -0.3732, 183, 155
6.6230, 0.2392, -0.1693, 0.1306, -0.4198, -0.0187, 0.8022, 500401, 0.0443, -0.3127, -0.1034, -0.0338, -0.0983, 0.1108, -0.3732, 183, 155
6.6390, 0.0371, 0.6115, -0.2053, -0.4152, -0.0185, 0.8015, 500441, 0.0444, -0.3127, -0.1034, -0.0339, -0.0981, 0.1108, -0.3617, 172, 166
6.6700, 0.0847, 0.2553, 0.1718, -0.4079, -0.0192, 0.8011, 500461, 0.0443, -0.3127, -0.1034, -0.0338, -0.0980, 0.1109, -0.3550, 170, 168
6.6860, 0.0847, 0.2553, 0.1718, -0.4079, -0.0192, 0.8011, 500461, 0.0443, -0.3127, -0.1034, -0.0338, -0.0982, 0.1107, -0.3550, 170, 168
6.7020, 0.0484, 0.9160, -0.3564, -0.3866, -0.0178, 0.8006, 500501, 0.0443, -0.3127, -0.1034, -0.0338, -0.0980, 0.1109, -0.3397, 164, 172
6.7170, 0.0484, 0.9160, -0.3564, -0.3866, -0.0178, 0.8006, 500501, 0.0443, -0.3127, -0.1034, -0.0339, -0.0982, 0.1107, -0.3397, 164, 172
6.7480, 0.4118, 0.3352, 0.1594, -0.3765, -0.0169, 0.8006, 500521, 0.0443, -0.3127, -0.1034, -0.0338, -0.0981, 0.1109, -0.3311, 168, 167
6.7640, 0.1387, 0.2838, -0.0734, -0.3641, -0.0168, 0.8004, 500561, 0.0443, -0.3127, -0.1034, -0.0338, -0.0980, 0.1108, -0.3123, 174, 160
6.7800, 0.1387, 0.2838, -0.0734, -0.3641, -0.0168, 0.8004, 500561, 0.0443, -0.3127, -0.1034, -0.0338, -0.0982, 0.1108, -0.3123, 174, 160
6.8110, 0.0836, -0.1726, 0.2220, -0.3560, -0.0164, 0.7995, 500601, 0.0443, -0.3127, -0.1034, -0.0338, -0.0980, 0.1109, -0.2913, 187, 145
6.8260, 0.0325, 0.6123, -0.2107, -0.3505, -0.0168, 0.7992, 500621, 0.0443, -0.3127, -0.1034, -0.0339, -0.0981, 0.1107, -0.2800, 179, 153
6.8420, 0.0325, 0.6123, -0.2107, -0.3505, -0.0168, 0.7992, 500621, 0.0443, -0.3126, -0.1034, -0.0338, -0.0981, 0.1109, -0.2800, 179, 153
6.8580, 0.2876, 0.2250, 0.2105, -0.3313, -0.0161, 0.7985, 500661, 0.0443, -0.3127, -0.1034, -0.0339, -0.0981, 0.1108, -0.2560, 182, 149
6.8890, -0.0680, 0.7305, 0.0462, -0.3197, -0.0168, 0.7987, 500681, 0.0443, -0.3127, -0.1034, -0.0339, -0.0981, 0.1108, -0.2433, 176, 155
6.9050, -0.0680, 0.7305, 0.0462, -0.3197, -0.0168, 0.7987, 500681, 0.0443, -0.3126, -0.1034, -0.0338, -0.0981, 0.1108, -0.2433, 176, 155
6.9200, -0.0960, 0.6733, -0.0132, -0.2932, -0.0147, 0.7974, 500721, 0.0443, -0.3127, -0.1034, -0.0338, -0.0982, 0.1108, -0.2166, 169, 161
6.9510, -0.3618, 0.8373, -0.1500, -0.2726, -0.0138, 0.7976, 500761, 0.0444, -0.3127, -0.1034, -0.0339, -0.0980, 0.1109, -0.1885, 181, 146
6.9670, -0.3618, 0.8373, -0.1500, -0.2726, -0.0138, 0.7976, 500761, 0.0443, -0.3127, -0.1034, -0.0337, -0.0982, 0.1108, -0.1885, 181, 146
6.9830, 0.3620, 0.8149, -0.1037, -0.2557, -0.0133, 0.7969, 500781, 0.0443, -0.3127, -0.1034, -0.0339, -0.0980, 0.1109, -0.1739, 168, 159
6.9980, 0.3620, 0.8149, -0.1037, -0.2557, -0.0133, 0.7969, 500781, 0.0443, -0.3126, -0.1034, -0.0337, -0.0982, 0.1108, -0.1739, 168, 159
7.0300, -0.2217, 0.6897, 0.2373, -0.2169, -0.0133, 0.7969, 500821, 0.0443, -0.3127, -0.1034, -0.0339, -0.0980, 0.1109, -0.1438, 170, 156
7.0450, -0.0339, 1.0224, -0.0247, -0.1990, -0.0134, 0.7967, 500841, 0.0443, -0.3127, -0.1034, -0.0339, -0.0982, 0.1108, -0.1284, 169, 156
7.0610, -0.0339, 1.0224, -0.0247, -0.1990, -0.0134, 0.7967, 500841, 0.0443, -0.3127, -0.1034, -0.0338, -0.0981, 0.1106, -0.1284, 169, 156
7.0920, -0.1183, 0.8321, -0.1287, -0.1852, -0.0131, 0.7957, 500861, 0.0443, -0.3127, -0.1034, -0.0339, -0.0981, 0.1108, -0.1127, 168, 157
7.1080, -0.1317, 0.7082, 0.0043, -0.1627, -0.0120, 0.7960, 500901, 0.0443, -0.3127, -0.1034, -0.0338, -0.0982, 0.1107, -0.0808, 171, 153
7.1230, -0.1317, 0.7082, 0.0043, -0.1627, -0.0120, 0.7960, 500901, 0.0443, -0.3127, -0.1034, -0.0337, -0.0981, 0.1107, -0.0808, 171, 153
7.1390, 0.4674, 1.0496, -0.0642, -0.1426, -0.0120, 0.7955, 500921, 0.0443, -0.3127, -0.1034, -0.0339, -0.0981, 0.1108, -0.0647, 160, 163
7.1700, -0.2586, 0.6109, 0.2333, -0.1031, -0.0105, 0.7952, 500961, 0.0443, -0.3127, -0.1034, -0.0338, -0.0981, 0.1107, -0.0320, 170, 152
7.1860, -0.2586, 0.6109, 0.2333, -0.1031, -0.0105, 0.7952, 500961, 0.0443, -0.3127, -0.1034, -0.0339, -0.0980, 0.1108, -0.0320, 170, 152
7.2010, 0.0489, 0.7918, -0.1828, -0.0799, -0.0105, 0.7948, 501001, 0.0443, -0.3127, -0.1034, -0.0338, -0.0983, 0.1107, 0.0008, 167, 155
7.2170, 0.0489, 0.7918, -0.1828, -0.0799, -0.0105, 0.7948, 501001, 0.0444, -0.3127, -0.1034, -0.0339, -0.0980, 0.1109, 0.0008, 167, 155
7.2480, -0.0567, 1.0864, 0.1693, -0.0653, -0.0103, 0.7946, 501021, 0.0443, -0.3127, -0.1034, -0.0339, -0.0981, 0.1108, 0.0173, 159, 163
7.2640, -0.3059, 1.5898, 0.0167, -0.0122, -0.0126, 0.7948, 501061, 0.0443, -0.3127, -0.1034, -0.0338, -0.0982, 0.1108, 0.0500, 155, 167
7.2800, -0.3059, 1.5898, 0.0167, -0.0122, -0.0126, 0.7948, 501061, 0.0443, -0.3127, -0.1034, -0.0338, -0.0981, 0.1109, 0.0500, 155, 167
7.3110, 0.3005, 0.4970, -0.1314, 0.0037, -0.0119, 0.7940, 501081, 0.0443, -0.3127, -0.1034, -0.0340, -0.0982, 0.1107, 0.0663, 168, 153
7.3260, -0.4094, 0.7625, 0.0728, 0.0129, -0.0101, 0.7940, 501121, 0.0444, -0.3126, -0.1034, -0.0338, -0.0980, 0.1108, 0.0985, 170, 152
7.3420, -0.4094, 0.7625, 0.0728, 0.0129, -0.0101, 0.7940, 501121, 0.0443, -0.3127, -0.1034, -0.0339, -0.0982, 0.1108, 0.0985, 170, 152
7.3580, -0.1395, 1.2541, 0.3051, 0.0646, -0.0113, 0.7941, 501161, 0.0443, -0.3127, -0.1034, -0.0338, -0.0982, 0.1109, 0.1299, 159, 163
7.3890, 0.2524, 1.0361, -0.1648, 0.0883, -0.0119, 0.7941, 501181, 0.0443, -0.3127, -0.1034, -0.0338, -0.0980, 0.1109, 0.1453, 160, 162
7.4040, 0.2524, 1.0361, -0.1648, 0.0883, -0.0119, 0.7941, 501181, 0.0443, -0.3127, -0.1034, -0.0338, -0.0982, 0.1108, 0.1453, 160, 162
7.4200, -0.2865, 0.4811, 0.0357, 0.1007, -0.0112, 0.7929, 501221, 0.0444, -0.3127, -0.1034, -0.0338, -0.0980, 0.1109, 0.1754, 171, 150
7.4510, -0.1795, 0.6322, 0.3185, 0.1101, -0.0108, 0.7931, 501241, 0.0443, -0.3127, -0.1034, -0.0338, -0.0980, 0.1108, 0.1899, 172, 150
7.4670, -0.1795, 0.6322, 0.3185, 0.1101, -0.0108, 0.7931, 501241, 0.0443, -0.3127, -0.1035, -0.0339, -0.0981, 0.1108, 0.1899, 172, 150
7.4830, -0.1363, 1.1980, -0.0817, 0.1546, -0.0119, 0.7922, 501281, 0.0443, -0.3126, -0.1034, -0.0337, -0.0981, 0.1108, 0.2180, 154, 169
7.4980, -0.1363, 1.1980, -0.0817, 0.1546, -0.0119, 0.7922, 501281, 0.0443, -0.3127, -0.1034, -0.0338, -0.0982, 0.1108, 0.2180, 154, 169
7.5290, 0.3212, 0.3723, 0.1621, 0.1815, -0.0079, 0.7913, 501321, 0.0443, -0.3127, -0.1034, -0.0339, -0.0981, 0.1108, 0.2446, 168, 156
7.5450, -0.5316, 0.5972, 0.1371, 0.1899, -0.0086, 0.7913, 501341, 0.0444, -0.3127, -0.1034, -0.0337, -0.0980, 0.1108, 0.2572, 173, 151
7.5610, -0.5316, 0.5972, 0.1371, 0.1899, -0.0086, 0.7913, 501341, 0.0443, -0.3127, -0.1034, -0.0339, -0.0981, 0.1107, 0.2572, 173, 151
7.5760, 0.1435, 1.3380, -0.2760, 0.2248, -0.0093, 0.7908, 501381, 0.0443, -0.3126, -0.1034, -0.0337, -0.0981, 0.1108, 0.2812, 152, 174
7.6080, -0.2661, 0.8176, 0.0228, 0.2431, -0.0096, 0.7906, 501401, 0.0443, -0.3127, -0.1034, -0.0339, -0.0981, 0.1108, 0.2924, 158, 169
7.6230, -0.2661, 0.8176, 0.0228, 0.2431, -0.0096, 0.7906, 501401, 0.0443, -0.3126, -0.1034, -0.0339, -0.0981, 0.1109, 0.2924, 158, 169
7.6390, 0.0634, 0.7426, -0.1863, 0.2627, -0.0101, 0.7912, 501441, 0.0443, -0.3126, -0.1033, -0.0337, -0.0980, 0.1107, 0.3133, 166, 162
7.6700, -0.1476, 0.7176, -0.0134, 0.2712, -0.0103, 0.7903, 501461, 0.0443, -0.3127, -0.1035, -0.0339, -0.0981, 0.1108, 0.3229, 165, 164
7.6860, -0.1476, 0.7176, -0.0134, 0.2712, -0.0103, 0.7903, 501461, 0.0443, -0.3126, -0.1033, -0.0338, -0.0981, 0.1108, 0.3229, 165, 164
7.7010, -0.4287, 0.8389, -0.0333, 0.2932, -0.0106, 0.7910, 501501, 0.0443, -0.3127, -0.1034, -0.0339, -0.0980, 0.1109, 0.3405, 166, 164
7.7170, -0.4287, 0.8389, -0.0333, 0.2932, -0.0106, 0.7910, 501501, 0.0443, -0.3127, -0.1034, -0.0339, -0.0982, 0.1108, 0.3405, 166, 164
7.7480, 0.4021, 0.3553, 0.1723, 0.3173, -0.0103, 0.7903, 501541, 0.0444, -0.3127, -0.1034, -0.0338, -0.0979, 0.1108, 0.3557, 167, 165
7.7640, 0.4021, 0.3553, 0.1723, 0.3173, -0.0103, 0.7903, 501541, 0.0443, -0.3127, -0.1034, -0.0339, -0.0980, 0.1108, 0.3557, 167, 165
7.7790, 0.4021, 0.3553, 0.1723, 0.3173, -0.0103, 0.7903, 501541, 0.0443, -0.3126, -0.1034, -0.0337, -0.0983, 0.1108, 0.3557, 167, 165
7.8110, 0.2599, 0.2639, 0.0857, 0.3398, -0.0112, 0.7898, 501601, 0.0443, -0.3127, -0.1034, -0.0339, -0.0980, 0.1109, 0.3737, 168, 165
7.8260, -0.3379, 0.5118, 0.0860, 0.3484, -0.0119, 0.7898, 501621, 0.0443, -0.3127, -0.1034, -0.0339, -0.0983, 0.1107, 0.3785, 169, 164
7.8420, -0.3379, 0.5118, 0.0860, 0.3484, -0.0119, 0.7898, 501621, 0.0443, -0.3127, -0.1034, -0.0338, -0.0981, 0.1108, 0.3785, 169, 164
7.8580, 0.1677, 0.3344, 0.0538, 0.3660, -0.0089, 0.7887, 501661, 0.0443, -0.3127, -0.1034, -0.0339, -0.0980, 0.1108, 0.3859, 164, 170
7.8890, -0.0331, 0.6596, -0.1750, 0.3786, -0.0089, 0.7880, 501701, 0.0443, -0.3127, -0.1034, -0.0338, -0.0983, 0.1108, 0.3906, 160, 175
7.9040, -0.0331, 0.6596, -0.1750, 0.3786, -0.0089, 0.7880, 501701, 0.0444, -0.3127, -0.1034, -0.0338, -0.0979, 0.1110, 0.3906, 160, 175
7.9200, -0.0331, 0.6596, -0.1750, 0.3786, -0.0089, 0.7880, 501701, 0.0443, -0.3127, -0.1033, -0.0339, -0.0982, 0.1107, 0.3906, 160, 175
7.9510, 0.1476, -0.0704, 0.1865, 0.3862, -0.0105, 0.7875, 501741, 0.0443, -0.3127, -0.1034, -0.0339, -0.0981, 0.1107, 0.3926, 169, 167
7.9670, 0.1476, -0.0704, 0.1865, 0.3862, -0.0105, 0.7875, 501741, 0.0443, -0.3127, -0.1034, -0.0338, -0.0982, 0.1108, 0.3926, 169, 167
7.9820, -0.2336, 0.3790, -0.1277, 0.3941, -0.0105, 0.7861, 501781, 0.0443, -0.3127, -0.1034, -0.0338, -0.0983, 0.1107, 0.3919, 162, 175
7.9980, -0.2336, 0.3790, -0.1277, 0.3941, -0.0105, 0.7861, 501781, 0.0443, -0.3127, -0.1034, -0.0339, -0.0980, 0.1109, 0.3919, 162, 175
8.0290, 0.1013, -0.3908, 0.2551, 0.3943, -0.0101, 0.7863, 501801, 0.0444, -0.3127, -0.1034, -0.0338, -0.0982, 0.1108, 0.3905, 177, 160
8.0450, -0.0978, -0.1223, 0.0027, 0.3903, -0.0082, 0.7847, 501841, 0.0443, -0.3127, -0.1034, -0.0339, -0.0982, 0.1109, 0.3856, 165, 171
8.0610, -0.0978, -0.1223, 0.0027, 0.3903, -0.0082, 0.7847, 501841, 0.0443, -0.3127, -0.1034, -0.0339, -0.0980, 0.1108, 0.3856, 165, 171
8.0920, 0.2779, -0.4550, 0.3035, 0.3876, -0.0075, 0.7849, 501861, 0.0443, -0.3127, -0.1034, -0.0339, -0.0982, 0.1109, 0.3821, 175, 161
8.1070, 0.2199, -0.0581, 0.0078, 0.3887, -0.0084, 0.7828, 501901, 0.0443, -0.3127, -0.1034, -0.0339, -0.0981, 0.1108, 0.3732, 165, 171
8.1230, 0.2199, -0.0581, 0.0078, 0.3887, -0.0084, 0.7828, 501901, 0.0443, -0.3127, -0.1034, -0.0338, -0.0981, 0.1108, 0.3732, 165, 171
8.1390, -0.5394, 0.5153, -0.2811, 0.3854, -0.0079, 0.7828, 501941, 0.0444, -0.3127, -0.1034, -0.0339, -0.0981, 0.1107, 0.3617, 155, 180
8.1700, 0.2102, -0.2914, -0.0054, 0.3821, -0.0082, 0.7819, 501961, 0.0444, -0.3127, -0.1033, -0.0338, -0.0979, 0.1108, 0.3550, 166, 170
8.1860, 0.2102, -0.2914, -0.0054, 0.3821, -0.0082, 0.7819, 501961, 0.0443, -0.3127, -0.1034, -0.0338, -0.0982, 0.1107, 0.3550, 166, 170
8.2010, -0.4177, 0.0384, -0.1309, 0.3683, -0.0091, 0.7812, 502001, 0.0443, -0.3127, -0.1034, -0.0338, -0.0982, 0.1108, 0.3397, 164, 171
8.2170, -0.4177, 0.0384, -0.1309, 0.3683, -0.0091, 0.7812, 502001, 0.0443, -0.3127, -0.1034, -0.0339, -0.0981, 0.1108, 0.3397, 164, 171
8.2480, 0.3228, -0.1838, 0.0019, 0.3622, -0.0105, 0.7803, 502021, 0.0443, -0.3127, -0.1034, -0.0338, -0.0983, 0.1108, 0.3311, 159, 175
8.2640, -0.3005, -0.4612, -0.0769, 0.3466, -0.0103, 0.7800, 502061, 0.0444, -0.3127, -0.1033, -0.0338, -0.0979, 0.1109, 0.3123, 169, 164
8.2790, -0.3005, -0.4612, -0.0769, 0.3466, -0.0103, 0.7800, 502061, 0.0443, -0.3127, -0.1034, -0.0339, -0.0981, 0.1107, 0.3123, 169, 164
8.3110, -0.0731, -0.5620, 0.0852, 0.3286, -0.0086, 0.7789, 502101, 0.0443, -0.3126, -0.1034, -0.0338, -0.0981, 0.1108, 0.2913, 167, 165
8.3260, -0.0411, -0.1994, 0.0089, 0.3199, -0.0080, 0.7789, 502121, 0.0444, -0.3127, -0.1034, -0.0339, -0.0979, 0.1109, 0.2800, 167, 165
8.3420, -0.0411, -0.1994, 0.0089, 0.3199, -0.0080, 0.7789, 502121, 0.0443, -0.3127, -0.1034, -0.0339, -0.0981, 0.1107, 0.2800, 167, 165
8.3570, -0.1481, -1.0474, 0.1269, 0.3009, -0.0098, 0.7775, 502161, 0.0443, -0.3126, -0.1034, -0.0338, -0.0980, 0.1108, 0.2560, 165, 165
8.3890, 0.0296, -0.7340, 0.0645, 0.2854, -0.0089, 0.7775, 502181, 0.0443, -0.3127, -0.1034, -0.0339, -0.0980, 0.1109, 0.2433, 174, 155
8.4040, 0.0296, -0.7340, 0.0645, 0.2854, -0.0089, 0.7775, 502181, 0.0443, -0.3127, -0.1034, -0.0338, -0.0982, 0.1106, 0.2433, 174, 155
8.4200, 0.0497, -0.7061, 0.1535, 0.2562, -0.0089, 0.7765, 502221, 0.0443, -0.3127, -0.1035, -0.0339, -0.0981, 0.1109, 0.2166, 167, 161
8.4510, -0.2212, -0.0500, -0.3035, 0.2368, -0.0093, 0.7756, 502261, 0.0443, -0.3127, -0.1034, -0.0339, -0.0982, 0.1108, 0.1885, 152, 175
8.4670, -0.2212, -0.0500, -0.3035, 0.2368, -0.0093, 0.7756, 502261, 0.0443, -0.3127, -0.1034, -0.0339, -0.0983, 0.1107, 0.1885, 152, 175
8.4820, 0.1271, -0.9284, 0.1086, 0.2244, -0.0099, 0.7749, 502281, 0.0443, -0.3127, -0.1034, -0.0338, -0.0980, 0.1109, 0.1739, 160, 166
8.4980, 0.1271, -0.9284, 0.1086, 0.2244, -0.0099, 0.7749, 502281, 0.0443, -0.3127, -0.1034, -0.0339, -0.0983, 0.1108, 0.1739, 160, 166
8.5290, -0.2223, -0.3250, -0.2699, 0.1909, -0.0115, 0.7739, 502321, 0.0443, -0.3126, -0.1034, -0.0339, -0.0980, 0.1108, 0.1438, 160, 165
8.5450, 0.0589, -1.0461, 0.2002, 0.1737, -0.0120, 0.7734, 502341, 0.0443, -0.3127, -0.1034, -0.0339, -0.0982, 0.1107, 0.1284, 170, 154
8.5600, 0.0589, -1.0461, 0.2002, 0.1737, -0.0120, 0.7734, 502341, 0.0444, -0.3127, -0.1034, -0.0339, -0.0979, 0.1109, 0.1284, 170, 154
8.5920, -0.4940, -0.1411, -0.1777, 0.1429, -0.0117, 0.7732, 502381, 0.0443, -0.3127, -0.1034, -0.0339, -0.0981, 0.1108, 0.0969, 159, 165
8.6070, -0.4940, -0.1411, -0.1777, 0.1429, -0.0117, 0.7732, 502381, 0.0443, -0.3127, -0.1034, -0.0338, -0.0982, 0.1108, 0.0969, 159, 165
8.6230, 0.1962, -1.1149, 0.1607, 0.1159, -0.0099, 0.7732, 502421, 0.0443, -0.3127, -0.1034, -0.0339, -0.0980, 0.1108, 0.0647, 167, 156
8.6390, 0.1962, -1.1149, 0.1607, 0.1159, -0.0099, 0.7732, 502421, 0.0443, -0.3127, -0.1034, -0.0338, -0.0982, 0.1107, 0.0647, 167, 156
8.6700, -0.5857, -0.6031, -0.1943, 0.1004, -0.0113, 0.7725, 502441, 0.0443, -0.3127, -0.1034, -0.0338, -0.0982, 0.1108, 0.0484, 160, 162
8.6850, 0.1054, -0.8561, 0.1199, 0.0606, -0.0105, 0.7721, 502481, 0.0443, -0.3126, -0.1034, -0.0337, -0.0981, 0.1108, 0.0156, 169, 153
8.7010, 0.1054, -0.8561, 0.1199, 0.0606, -0.0105, 0.7721, 502481, 0.0443, -0.3127, -0.1034, -0.0339, -0.0980, 0.1106, 0.0156, 169, 153
8.7320, -0.1234, -0.6763, 0.0078, 0.0454, -0.0106, 0.7718, 502501, 0.0443, -0.3127, -0.1034, -0.0338, -0.0981, 0.1108, -0.0008, 161, 161
8.7480, -0.0766, -0.7631, 0.0151, 0.0215, -0.0105, 0.7704, 502541, 0.0443, -0.3126, -0.1034, -0.0338, -0.0982, 0.1108, -0.0337, 160, 162
8.7640, -0.0766, -0.7631, 0.0151, 0.0215, -0.0105, 0.7704, 502541, 0.0443, -0.3127, -0.1034, -0.0338, -0.0981, 0.1107, -0.0337, 160, 162
8.7790, -0.0024, -0.7193, -0.1986, -0.0175, -0.0101, 0.7695, 502581, 0.0443, -0.3126, -0.1034, -0.0338, -0.0982, 0.1107, -0.0663, 164, 158
8.8100, -0.0465, -0.9383, -0.2344, -0.0380, -0.0099, 0.7690, 502601, 0.0443, -0.3127, -0.1034, -0.0338, -0.0981, 0.1109, -0.0825, 167, 155
8.8260, -0.0465, -0.9383, -0.2344, -0.0380, -0.0099, 0.7690, 502601, 0.0443, -0.3127, -0.1034, -0.0338, -0.0982, 0.1107, -0.0825, 167, 155
8.8420, -0.0599, -0.7537, 0.0280, -0.0750, -0.0103, 0.7686, 502641, 0.0443, -0.3127, -0.1034, -0.0338, -0.0980, 0.1108, -0.1143, 167, 155
8.8570, -0.0599, -0.7537, 0.0280, -0.0750, -0.0103, 0.7686, 502641, 0.0443, -0.3127, -0.1034, -0.0339, -0.0982, 0.1108, -0.1143, 167, 155
8.8880, -0.1916, -0.1091, -0.2578, -0.0845, -0.0115, 0.7678, 502661, 0.0443, -0.3126, -0.1033, -0.0338, -0.0982, 0.1106, -0.1299, 153, 169
8.9040, 0.4271, -1.6105, 0.2191, -0.1210, -0.0098, 0.7678, 502701, 0.0443, -0.3127, -0.1034, -0.0339, -0.0980, 0.1107, -0.1605, 181, 140
8.9200, 0.4271, -1.6105, 0.2191, -0.1210, -0.0098, 0.7678, 502701, 0.0443, -0.3127, -0.1034, -0.0338, -0.0982, 0.1108, -0.1605, 181, 140
8.9510, 0.5432, -0.3997, -0.0710, -0.1573, -0.0103, 0.7665, 502741, 0.0444, -0.3126, -0.1034, -0.0338, -0.0978, 0.1109, -0.1899, 166, 158
8.9670, 0.3244, -0.0003, -0.2201, -0.1623, -0.0096, 0.7660, 502761, 0.0443, -0.3127, -0.1034, -0.0338, -0.0981, 0.1107, -0.2041, 149, 174
8.9820, 0.3244, -0.0003, -0.2201, -0.1623, -0.0096, 0.7660, 502761, 0.0444, -0.3127, -0.1034, -0.0339, -0.0980, 0.1108, -0.2041, 149, 174
8.9980, 0.0573, -1.2076, 0.1992, -0.1841, -0.0103, 0.7660, 502801, 0.0443, -0.3127, -0.1034, -0.0339, -0.0980, 0.1108, -0.2315, 170, 155
9.0290, -0.0425, -0.7332, -0.1752, -0.2044, -0.0103, 0.7657, 502821, 0.0443, -0.3126, -0.1034, -0.0338, -0.0982, 0.1107, -0.2446, 170, 155
9.0450, -0.0425, -0.7332, -0.1752, -0.2044, -0.0103, 0.7657, 502821, 0.0444, -0.3126, -0.1034, -0.0338, -0.0980, 0.1108, -0.2446, 170, 155
9.0600, -0.1847, -0.3301, 0.1529, -0.2370, -0.0094, 0.7650, 502861, 0.0443, -0.3127, -0.1034, -0.0339, -0.0981, 0.1108, -0.2694, 159, 168
9.0920, -0.1575, -0.5591, 0.3309, -0.2440, -0.0099, 0.7655, 502881, 0.0444, -0.3126, -0.1034, -0.0339, -0.0981, 0.1108, -0.2812, 163, 164
9.1070, -0.1575, -0.5591, 0.3309, -0.2440, -0.0099, 0.7655, 502881, 0.0443, -0.3126, -0.1034, -0.0338, -0.0981, 0.1108, -0.2812, 163, 164
9.1230, -0.3043, -0.6048, -0.2682, -0.2630, -0.0112, 0.7653, 502921, 0.0443, -0.3127, -0.1034, -0.0339, -0.0982, 0.1108, -0.3031, 160, 168
9.1380, -0.3043, -0.6048, -0.2682, -0.2630, -0.0112, 0.7653, 502921, 0.0443, -0.3127, -0.1034, -0.0338, -0.0981, 0.1110, -0.3031, 160, 168
9.1700, -0.0796, -0.6117, 0.0954, -0.2962, -0.0115, 0.7657, 502961, 0.0444, -0.3127, -0.1034, -0.0339, -0.0980, 0.1107, -0.3229, 174, 155
9.1850, -0.0097, -0.3650, -0.0505, -0.3058, -0.0131, 0.7657, 502981, 0.0443, -0.3126, -0.1034, -0.0338, -0.0981, 0.1108, -0.3320, 165, 165
9.2010, -0.0097, -0.3650, -0.0505, -0.3058, -0.0131, 0.7657, 502981, 0.0443, -0.3127, -0.1034, -0.0339, -0.0981, 0.1108, -0.3320, 165, 165
9.2320, 0.0067, -0.5077, 0.1271, -0.3159, -0.0119, 0.7655, 503021, 0.0443, -0.3127, -0.1034, -0.0338, -0.0981, 0.1108, -0.3484, 163, 168
9.2480, -0.1051, -0.7128, 0.1712, -0.3253, -0.0124, 0.7659, 503041, 0.0444, -0.3126, -0.1034, -0.0338, -0.0980, 0.1109, -0.3557, 173, 159
9.2630, -0.1051, -0.7128, 0.1712, -0.3253, -0.0124, 0.7659, 503041, 0.0443, -0.3127, -0.1034, -0.0338, -0.0981, 0.1106, -0.3557, 173, 159
9.2790, -0.1637, -0.4263, -0.1086, -0.3457, -0.0133, 0.7655, 503081, 0.0443, -0.3127, -0.1034, -0.0338, -0.0980, 0.1108, -0.3684, 167, 167
9.3100, 0.0339, -0.7800, 0.2693, -0.3562, -0.0136, 0.7662, 503101, 0.0444, -0.3127, -0.1034, -0.0337, -0.0980, 0.1108, -0.3737, 177, 157
9.3260, 0.0339, -0.7800, 0.2693, -0.3562, -0.0136, 0.7662, 503101, 0.0443, -0.3127, -0.1034, -0.0339, -0.0982, 0.1107, -0.3737, 177, 157
9.3410, -0.0336, -0.1938, -0.1642, -0.3646, -0.0134, 0.7665, 503121, 0.0443, -0.3127, -0.1034, -0.0338, -0.0981, 0.1108, -0.3785, 171, 163
9.3570, -0.0336, -0.1938, -0.1642, -0.3646, -0.0134, 0.7665, 503121, 0.0444, -0.3127, -0.1034, -0.0338, -0.0980, 0.1107, -0.3785, 171, 163
9.3880, -0.3860, -0.0844, -0.1986, -0.3829, -0.0145, 0.7659, 503181, 0.0443, -0.3127, -0.1034, -0.0338, -0.0981, 0.1109, -0.3886, 173, 163
9.4040, 0.2422, -0.0817, -0.0919, -0.3861, -0.0147, 0.7655, 503201, 0.0443, -0.3127, -0.1034, -0.0339, -0.0982, 0.1107, -0.3906, 168, 168
9.4200, 0.2422, -0.0817, -0.0919, -0.3861, -0.0147, 0.7655, 503201, 0.0443, -0.3127, -0.1034, -0.0339, -0.0980, 0.1109, -0.3906, 168, 168
9.4510, 0.1134, -0.3276, 0.0957, -0.3903, -0.0141, 0.7657, 503221, 0.0443, -0.3127, -0.1034, -0.0339, -0.0982, 0.1108, -0.3920, 174, 163
9.4660, 0.0231, 0.2580, -0.2008, -0.3955, -0.0150, 0.7660, 503261, 0.0444, -0.3127, -0.1033, -0.0338, -0.0980, 0.1108, -0.3926, 164, 172
9.4820, 0.0231, 0.2580, -0.2008, -0.3955, -0.0150, 0.7660, 503261, 0.0443, -0.3128, -0.1034, -0.0338, -0.0980, 0.1108, -0.3926, 164, 172
9.4980, -0.0801, 0.0962, 0.1438, -0.3962, -0.0148, 0.7659, 503281, 0.0443, -0.3127, -0.1034, -0.0338, -0.0982, 0.1108, -0.3919, 165, 172
9.5290, -0.1011, 0.4180, -0.2392, -0.3951, -0.0150, 0.7667, 503321, 0.0444, -0.3127, -0.1034, -0.0338, -0.0980, 0.1109, -0.3884, 166, 171
9.5450, -0.1011, 0.4180, -0.2392, -0.3951, -0.0150, 0.7667, 503321, 0.0443, -0.3127, -0.1034, -0.0338, -0.0982, 0.1108, -0.3884, 166, 171
9.5600, 0.2137, -0.2779, 0.2811, -0.3927, -0.0159, 0.7674, 503361, 0.0443, -0.3127, -0.1034, -0.0338, -0.0981, 0.1108, -0.3821, 176, 160
9.5910, -0.2932, 0.3491, -0.1949, -0.3901, -0.0164, 0.7674, 503381, 0.0443, -0.3127, -0.1034, -0.0339, -0.0981, 0.1107, -0.3780, 165, 171
9.6070, -0.2932, 0.3491, -0.1949, -0.3901, -0.0164, 0.7674, 503381, 0.0443, -0.3127, -0.1034, -0.0338, -0.0982, 0.1108, -0.3780, 165, 171
9.6230, -0.0688, -0.0726, 0.1355, -0.3868, -0.0169, 0.7678, 503421, 0.0444, -0.3127, -0.1034, -0.0339, -0.0980, 0.1109, -0.3678, 174, 162
9.6380, -0.0688, -0.0726, 0.1355, -0.3868, -0.0169, 0.7678, 503421, 0.0443, -0.3127, -0.1034, -0.0339, -0.0981, 0.1106, -0.3678, 174, 162
9.6700, -0.0868, 0.1344, 0.0175, -0.3852, -0.0171, 0.7679, 503441, 0.0444, -0.3127, -0.1034, -0.0338, -0.0980, 0.1109, -0.3617, 172, 164
9.6850, 0.0478, -0.1129, 0.2029, -0.3808, -0.0169, 0.7674, 503481, 0.0443, -0.3127, -0.1034, -0.0339, -0.0982, 0.1108, -0.3476, 175, 161
9.7010, 0.0478, -0.1129, 0.2029, -0.3808, -0.0169, 0.7674, 503481, 0.0443, -0.3127, -0.1034, -0.0338, -0.0981, 0.1108, -0.3476, 175, 161
9.7320, -0.0347, 0.4464, -0.2975, -0.3752, -0.0169, 0.7676, 503521, 0.0444, -0.3126, -0.1034, -0.0338, -0.0980, 0.1108, -0.3311, 169, 166
9.7480, 0.2475, 0.0462, 0.1683, -0.3721, -0.0173, 0.7676, 503541, 0.0443, -0.3127, -0.1034, -0.0338, -0.0981, 0.1107, -0.3220, 174, 161
9.7630, 0.2475, 0.0462, 0.1683, -0.3721, -0.0173, 0.7676, 503541, 0.0443, -0.3127, -0.1034, -0.0339, -0.0981, 0.1109, -0.3220, 174, 161
9.7790, -0.0570, 0.6437, -0.2373, -0.3609, -0.0175, 0.7676, 503581, 0.0443, -0.3127, -0.1034, -0.0338, -0.0982, 0.1108, -0.3021, 171, 163
9.8100, 0.2645, 0.5177, 0.0309, -0.3536, -0.0164, 0.7672, 503601, 0.0443, -0.3127, -0.1034, -0.0338, -0.0981, 0.1108, -0.2913, 174, 160
9.8260, 0.2645, 0.5177, 0.0309, -0.3536, -0.0164, 0.7672, 503601, 0.0444, -0.3127, -0.1034, -0.0339, -0.0980, 0.1109, -0.2913, 174, 160
9.8410, 0.0301, 0.5833, 0.0640, -0.3363, -0.0173, 0.7679, 503641, 0.0443, -0.3127, -0.1034, -0.0339, -0.0981, 0.1108, -0.2682, 175, 157
9.8730, -0.0019, 0.5330, 0.2196, -0.3124, -0.0173, 0.7679, 503681, 0.0443, -0.3126, -0.1034, -0.0339, -0.0981, 0.1108, -0.2433, 170, 161
9.8880, -0.0019, 0.5330, 0.2196, -0.3124, -0.0173, 0.7679, 503681, 0.0443, -0.3127, -0.1034, -0.0338, -0.0981, 0.1108, -0.2433, 170, 161
9.9040, -0.0438, 0.6556, 0.0438, -0.2993, -0.0168, 0.7683, 503701, 0.0443, -0.3127, -0.1034, -0.0339, -0.0980, 0.1109, -0.2302, 175, 154
9.9190, -0.0438, 0.6556, 0.0438, -0.2993, -0.0168, 0.7683, 503701, 0.0443, -0.3127, -0.1034, -0.0338, -0.0982, 0.1108, -0.2302, 175, 154
9.9510, 0.3362, 0.7749, 0.1986, -0.2686, -0.0164, 0.7678, 503741, 0.0444, -0.3127, -0.1034, -0.0339, -0.0981, 0.1108, -0.2027, 165, 163
9.9660, -0.4056, 0.7195, 0.0747, -0.2536, -0.0164, 0.7678, 503761, 0.0443, -0.3127, -0.1034, -0.0339, -0.0981, 0.1108, -0.1885, 172, 156
9.9820, -0.4056, 0.7195, 0.0747, -0.2536, -0.0164, 0.7678, 503761, 0.0443, -0.3126, -0.1034, -0.0338, -0.0981, 0.1108, -0.1885, 172, 156
9.9980, 0.3819, 0.9139, -0.1005, -0.2208, -0.0155, 0.7672, 503801, 0.0443, -0.3127, -0.1034, -0.0338, -0.0981, 0.1108, -0.1590, 159, 167
10.0290, 0.0462, 0.8948, -0.0731, -0.1902, -0.0148, 0.7674, 503841, 0.0443, -0.3126, -0.1034, -0.0338, -0.0982, 0.1107, -0.1284, 167, 158
10.0440, 0.0462, 0.8948, -0.0731, -0.1902, -0.0148, 0.7674, 503841, 0.0443, -0.3127, -0.1034, -0.0339, -0.0980, 0.1108, -0.1284, 167, 158
10.0600, -0.1371, 0.9096, -0.2263, -0.1754, -0.0143, 0.7669, 503861, 0.0443, -0.3127, -0.1034, -0.0339, -0.0981, 0.1108, -0.1127, 162, 162
10.0910, 0.0250, 0.4870, 0.1744, -0.1616, -0.0150, 0.7671, 503881, 0.0444, -0.3126, -0.1034, -0.0338, -0.0980, 0.1107, -0.0969, 165, 159
10.1070, 0.0250, 0.4870, 0.1744, -0.1616, -0.0150, 0.7671, 503881, 0.0443, -0.3127, -0.1034, -0.0339, -0.0980, 0.1108, -0.0969, 165, 159
10.1230, -0.1691, 1.0953, -0.3129, -0.1309, -0.0152, 0.7665, 503921, 0.0443, -0.3126, -0.1034, -0.0338, -0.0983, 0.1106, -0.0647, 159, 164
10.1380, -0.1691, 1.0953, -0.3129, -0.1309, -0.0152, 0.7665, 503921, 0.0443, -0.3126, -0.1034, -0.0339, -0.0981, 0.1108, -0.0647, 159, 164
10.1690, 0.3397, 0.4774, 0.2607, -0.1154, -0.0143, 0.7664, 503941, 0.0443, -0.3127, -0.1034, -0.0338, -0.0982, 0.1107, -0.0484, 163, 160
10.1850, -0.1075, 1.0762, -0.1376, -0.0808, -0.0147, 0.7665, 503981, 0.0443, -0.3127, -0.1034, -0.0339, -0.0981, 0.1108, -0.0156, 157, 165
10.2010, -0.1075, 1.0762, -0.1376, -0.0808, -0.0147, 0.7665, 503981, 0.0443, -0.3126, -0.1034, -0.0338, -0.0981, 0.1108, -0.0156, 157, 165
10.2320, 0.2492, 0.9695, -0.0081, -0.0651, -0.0134, 0.7665, 504001, 0.0443, -0.3127, -0.1034, -0.0338, -0.0983, 0.1107, 0.0008, 161, 161
10.2480, -0.0400, 0.8829, 0.0194, -0.0384, -0.0126, 0.7671, 504041, 0.0444, -0.3127, -0.1034, -0.0338, -0.0980, 0.1109, 0.0337, 166, 155
10.2630, -0.0400, 0.8829, 0.0194, -0.0384, -0.0126, 0.7671, 504041, 0.0443, -0.3127, -0.1034, -0.0338, -0.0983, 0.1107, 0.0337, 166, 155
10.2790, -0.0468, 0.9767, 0.1629, -0.0019, -0.0120, 0.7665, 504081, 0.0443, -0.3126, -0.1034, -0.0338, -0.0981, 0.1107, 0.0663, 156, 165
10.3100, 0.0441, 0.6924, 0.2986, 0.0180, -0.0117, 0.7672, 504101, 0.0443, -0.3127, -0.1034, -0.0338, -0.0981, 0.1108, 0.0825, 168, 153
10.3260, 0.0441, 0.6924, 0.2986, 0.0180, -0.0117, 0.7672, 504101, 0.0443, -0.3127, -0.1034, -0.0338, -0.0982, 0.1108, 0.0825, 168, 153
10.3410, -0.0293, 0.8550, -0.0908, 0.0515, -0.0117, 0.7662, 504141, 0.0443, -0.3126, -0.1034, -0.0339, -0.0980, 0.1108, 0.1143, 159, 163
10.3720, 0.3078, 0.4782, 0.2854, 0.0646, -0.0113, 0.7667, 504161, 0.0444, -0.3127, -0.1033, -0.0338, -0.0982, 0.1107, 0.1299, 171, 151
10.3880, 0.3078, 0.4782, 0.2854, 0.0646, -0.0113, 0.7667, 504161, 0.0443, -0.3127, -0.1034, -0.0338, -0.0981, 0.1108, 0.1299, 171, 151
10.4040, 0.0992, 1.1993, -0.0669, 0.0988, -0.0124, 0.7655, 504201, 0.0443, -0.3126, -0.1034, -0.0339, -0.0981, 0.1108, 0.1605, 154, 169
10.4190, 0.0992, 1.1993, -0.0669, 0.0988, -0.0124, 0.7655, 504201, 0.0443, -0.3127, -0.1034, -0.0338, -0.0982, 0.1107, 0.1605, 154, 169
10.4510, 0.2322, 0.4249, 0.2209, 0.1147, -0.0105, 0.7657, 504221, 0.0443, -0.3127, -0.1034, -0.0338, -0.0981, 0.1108, 0.1754, 169, 153
10.4660, 0.0981, 0.7410, -0.1220, 0.1408, -0.0106, 0.7659, 504261, 0.0443, -0.3127, -0.1034, -0.0338, -0.0981, 0.1109, 0.2041, 162, 161
10.4820, 0.0981, 0.7410, -0.1220, 0.1408, -0.0106, 0.7659, 504261, 0.0443, -0.3127, -0.1034, -0.0339, -0.0982, 0.1108, 0.2041, 162, 161
10.4970, -0.2535, 0.7037, 0.1712, 0.1695, -0.0093, 0.7664, 504301, 0.0443, -0.3126, -0.1033, -0.0337, -0.0981, 0.1108, 0.2315, 168, 156
10.5290, 0.0546, 1.0130, -0.0508, 0.1857, -0.0093, 0.7665, 504321, 0.0443, -0.3127, -0.1035, -0.0339, -0.0981, 0.1107, 0.2446, 164, 161
10.5440, 0.0546, 1.0130, -0.0508, 0.1857, -0.0093, 0.7665, 504321, 0.0443, -0.3127, -0.1034, -0.0338, -0.0981, 0.1108, 0.2446, 164, 161
10.5600, 0.1051, 0.5937, 0.2287, 0.2194, -0.0082, 0.7660, 504361, 0.0443, -0.3127, -0.1034, -0.0338, -0.0981, 0.1109, 0.2694, 161, 165
10.5910, -0.0715, 0.9225, -0.2664, 0.2498, -0.0070, 0.7659, 504401, 0.0443, -0.3127, -0.1035, -0.0338, -0.0981, 0.1108, 0.2924, 157, 170
10.6070, -0.0715, 0.9225, -0.2664, 0.2498, -0.0070, 0.7659, 504401, 0.0443, -0.3126, -0.1033, -0.0338, -0.0980, 0.1109, 0.2924, 157, 170
10.6220, 0.2000, 0.3685, 0.1976, 0.2623, -0.0061, 0.7659, 504421, 0.0444, -0.3127, -0.1035, -0.0339, -0.0980, 0.1107, 0.3031, 161, 167
10.6380, 0.2000, 0.3685, 0.1976, 0.2623, -0.0061, 0.7659, 504421, 0.0443, -0.3127, -0.1034, -0.0338, -0.0982, 0.1107, 0.3031, 161, 167
10.6690, -0.3053, 1.0348, -0.3123, 0.2847, -0.0059, 0.7657, 504461, 0.0443, -0.3127, -0.1034, -0.0339, -0.0980, 0.1108, 0.3229, 158, 171
10.6850, 0.2567, 0.3983, 0.2661, 0.2953, -0.0052, 0.7662, 504481, 0.0443, -0.3127, -0.1034, -0.0340, -0.0980, 0.1106, 0.3320, 167, 162
10.7010, 0.2567, 0.3983, 0.2661, 0.2953, -0.0052, 0.7662, 504481, 0.0443, -0.3127, -0.1034, -0.0339, -0.0981, 0.1108, 0.3320, 167, 162
10.7320, -0.3639, 0.8993, -0.1239, 0.3180, -0.0047, 0.7664, 504521, 0.0443, -0.3128, -0.1034, -0.0339, -0.0980, 0.1109, 0.3484, 157, 174
10.7470, -0.1634, 0.3131, 0.1035, 0.3430, -0.0040, 0.7667, 504561, 0.0444, -0.3127, -0.1034, -0.0339, -0.0981, 0.1107, 0.3623, 166, 167
10.7630, -0.1634, 0.3131, 0.1035, 0.3430, -0.0040, 0.7667, 504561, 0.0443, -0.3127, -0.1034, -0.0339, -0.0980, 0.1109, 0.3623, 166, 167
10.7790, -0.1634, 0.3131, 0.1035, 0.3430, -0.0040, 0.7667, 504561, 0.0443, -0.3127, -0.1034, -0.0338, -0.0982, 0.1108, 0.3623, 166, 167
10.8100, 0.3263, 0.6037, -0.0613, 0.3648, -0.0033, 0.7667, 504601, 0.0443, -0.3127, -0.1034, -0.0338, -0.0981, 0.1109, 0.3737, 158, 176
10.8260, 0.3263, 0.6037, -0.0613, 0.3648, -0.0033, 0.7667, 504601, 0.0443, -0.3127, -0.1034, -0.0338, -0.0980, 0.1109, 0.3737, 158, 176
10.8410, -0.1236, 0.3919, 0.0255, 0.3824, -0.0023, 0.7674, 504641, 0.0443, -0.3127, -0.1034, -0.0338, -0.0982, 0.1108, 0.3825, 161, 174
10.8720, 0.1876, 0.5924, -0.1892, 0.3897, -0.0021, 0.7671, 504661, 0.0444, -0.3127, -0.1034, -0.0338, -0.0978, 0.1109, 0.3859, 156, 180
10.8880, 0.1876, 0.5924, -0.1892, 0.3897, -0.0021, 0.7671, 504661, 0.0443, -0.3127, -0.1034, -0.0338, -0.0980, 0.1107, 0.3859, 156, 180
10.9040, 0.0293, -0.0726, 0.1059, 0.3948, -0.0026, 0.7667, 504681, 0.0443, -0.3127, -0.1034, -0.0338, -0.0981, 0.1108, 0.3886, 164, 173
10.9190, 0.0293, -0.0726, 0.1059, 0.3948, -0.0026, 0.7667, 504681, 0.0443, -0.3127, -0.1034, -0.0339, -0.0980, 0.1108, 0.3886, 164, 173
10.9500, -0.2416, 0.3026, -0.0081, 0.4002, -0.0026, 0.7662, 504741, 0.0444, -0.3127, -0.1034, -0.0338, -0.0981, 0.1109, 0.3926, 158, 178
10.9660, 0.1812, -0.0863, 0.1787, 0.4039, -0.0017, 0.7672, 504761, 0.0443, -0.3127, -0.1034, -0.0339, -0.0980, 0.1109, 0.3926, 166, 172
10.9820, 0.1812, -0.0863, 0.1787, 0.4039, -0.0017, 0.7672, 504761, 0.0443, -0.3127, -0.1034, -0.0338, -0.0980, 0.1108, 0.3926, 166, 172
11.0130, -0.1282, 0.4373, -0.1838, 0.4124, -0.0030, 0.7662, 504801, 0.0443, -0.3127, -0.1034, -0.0339, -0.0981, 0.1109, 0.3905, 152, 185
11.0290, 0.1113, -0.4292, 0.2365, 0.4119, -0.0033, 0.7662, 504821, 0.0443, -0.3127, -0.1034, -0.0339, -0.0981, 0.1108, 0.3884, 171, 167
11.0440, 0.1113, -0.4292, 0.2365, 0.4119, -0.0033, 0.7662, 504821, 0.0443, -0.3127, -0.1034, -0.0339, -0.0980, 0.1108, 0.3884, 171, 167
11.0600, -0.3080, 0.0062, -0.0427, 0.4105, -0.0031, 0.7667, 504841, 0.0443, -0.3127, -0.1034, -0.0338, -0.0982, 0.1107, 0.3856, 162, 176
11.0910, 0.3594, -0.3268, 0.2602, 0.4072, -0.0035, 0.7653, 504881, 0.0443, -0.3127, -0.1034, -0.0338, -0.0981, 0.1108, 0.3780, 167, 171
11.1070, 0.3594, -0.3268, 0.2602, 0.4072, -0.0035, 0.7653, 504881, 0.0443, -0.3127, -0.1034, -0.0338, -0.0981, 0.1108, 0.3780, 167, 171
11.1220, -0.0172, 0.1519, -0.1984, 0.4019, -0.0035, 0.7657, 504921, 0.0443, -0.3127, -0.1034, -0.0338, -0.0982, 0.1108, 0.3678, 154, 183
11.1380, -0.0172, 0.1519, -0.1984, 0.4019, -0.0035, 0.7657, 504921, 0.0443, -0.3127, -0.1034, -0.0339, -0.0980, 0.1109, 0.3678, 154, 183
11.1690, 0.2043, -0.0788, 0.0645, 0.4004, -0.0023, 0.7660, 504941, 0.0443, -0.3127, -0.1034, -0.0339, -0.0982, 0.1107, 0.3617, 156, 180
11.1850, -0.0185, 0.0363, -0.1916, 0.3955, -0.0031, 0.7662, 504981, 0.0443, -0.3127, -0.1034, -0.0339, -0.0979, 0.1109, 0.3476, 155, 181
11.2000, -0.0185, 0.0363, -0.1916, 0.3955, -0.0031, 0.7662, 504981, 0.0443, -0.3127, -0.1034, -0.0339, -0.0982, 0.1108, 0.3476, 155, 181
11.2320, 0.3876, -0.1051, 0.0129, 0.3925, -0.0033, 0.7662, 505001, 0.0444, -0.3127, -0.1034, -0.0338, -0.0980, 0.1109, 0.3397, 153, 183
11.2470, -0.2449, -0.2849, -0.1167, 0.3759, -0.0035, 0.7669, 505041, 0.0443, -0.3127, -0.1034, -0.0339, -0.0980, 0.1108, 0.3220, 160, 175
11.2630, -0.2449, -0.2849, -0.1167, 0.3759, -0.0035, 0.7669, 505041, 0.0443, -0.3127, -0.1034, -0.0339, -0.0982, 0.1108, 0.3220, 160, 175
11.2790, -0.0847, -0.4849, 0.1024, 0.3611, -0.0031, 0.7674, 505081, 0.0443, -0.3126, -0.1034, -0.0338, -0.0981, 0.1109, 0.3021, 161, 173
11.3100, -0.1752, -0.3763, 0.0277, 0.3531, -0.0035, 0.7678, 505101, 0.0443, -0.3127, -0.1035, -0.0338, -0.0982, 0.1108, 0.2913, 159, 174
11.3250, -0.1752, -0.3763, 0.0277, 0.3531, -0.0035, 0.7678, 505101, 0.0443, -0.3126, -0.1034, -0.0339, -0.0982, 0.1108, 0.2913, 159, 174
11.3410, 0.0054, -0.6335, 0.1062, 0.3334, -0.0035, 0.7683, 505141, 0.0443, -0.3127, -0.1035, -0.0339, -0.0979, 0.1109, 0.2682, 158, 174
11.3720, -0.1857, -0.9741, 0.0879, 0.3196, -0.0037, 0.7685, 505161, 0.0443, -0.3127, -0.1034, -0.0339, -0.0983, 0.1108, 0.2560, 167, 165
11.3880, -0.1857, -0.9741, 0.0879, 0.3196, -0.0037, 0.7685, 505161, 0.0443, -0.3126, -0.1034, -0.0338, -0.0980, 0.1109, 0.2560, 167, 165
11.4040, -0.0922, -0.8217, -0.0282, 0.2941, -0.0045, 0.7683, 505201, 0.0442, -0.3127, -0.1035, -0.0339, -0.0982, 0.1108, 0.2302, 163, 167
11.4190, -0.0922, -0.8217, -0.0282, 0.2941, -0.0045, 0.7683, 505201, 0.0444, -0.3126, -0.1034, -0.0337, -0.0981, 0.1108, 0.2302, 163, 167
11.4500, -0.0016, -0.3045, -0.1720, 0.2641, -0.0049, 0.7693, 505241, 0.0443, -0.3127, -0.1034, -0.0339, -0.0980, 0.1108, 0.2027, 153, 175
11.4660, -0.2355, -0.4892, -0.1473, 0.2505, -0.0054, 0.7693, 505261, 0.0443, -0.3127, -0.1034, -0.0338, -0.0982, 0.1107, 0.1885, 158, 170
11.4820, -0.2355, -0.4892, -0.1473, 0.2505, -0.0054, 0.7693, 505261, 0.0443, -0.3126, -0.1034, -0.0338, -0.0981, 0.1109, 0.1885, 158, 170
11.5130, 0.0366, -0.6126, -0.0954, 0.2190, -0.0051, 0.7704, 505301, 0.0443, -0.3126, -0.1034, -0.0338, -0.0981, 0.1108, 0.1590, 163, 163
11.5280, -0.0255, -0.6386, -0.1320, 0.2033, -0.0054, 0.7700, 505321, 0.0443, -0.3126, -0.1034, -0.0339, -0.0982, 0.1108, 0.1438, 158, 167
11.5440, -0.0255, -0.6386, -0.1320, 0.2033, -0.0054, 0.7700, 505321, 0.0444, -0.3127, -0.1034, -0.0339, -0.0979, 0.1109, 0.1438, 158, 167
11.5600, 0.0495, -0.8321, 0.0503, 0.1682, -0.0033, 0.7711, 505361, 0.0443, -0.3126, -0.1034, -0.0338, -0.0981, 0.1108, 0.1127, 166, 158
11.5910, 0.3225, -1.0910, 0.2330, 0.1368, -0.0031, 0.7707, 505401, 0.0443, -0.3127, -0.1034, -0.0339, -0.0981, 0.1108, 0.0808, 167, 156
11.6070, 0.3225, -1.0910, 0.2330, 0.1368, -0.0031, 0.7707, 505401, 0.0443, -0.3127, -0.1034, -0.0338, -0.0981, 0.1107, 0.0808, 167, 156
11.6220, 0.0629, -1.0749, -0.0003, 0.1204, -0.0026, 0.7720, 505421, 0.0444, -0.3126, -0.1034, -0.0339, -0.0980, 0.1107, 0.0647, 167, 156
11.6380, 0.0629, -1.0749, -0.0003, 0.1204, -0.0026, 0.7720, 505421, 0.0443, -0.3126, -0.1034, -0.0337, -0.0982, 0.1107, 0.0647, 167, 156
11.6690, 0.3556, -0.8743, 0.0521, 0.0911, -0.0030, 0.7716, 505461, 0.0443, -0.3127, -0.1034, -0.0338, -0.0980, 0.1109, 0.0320, 159, 163
11.6850, -0.1672, -1.1902, 0.1193, 0.0728, -0.0031, 0.7720, 505481, 0.0443, -0.3127, -0.1034, -0.0339, -0.0981, 0.1108, 0.0156, 171, 150
11.7000, -0.1672, -1.1902, 0.1193, 0.0728, -0.0031, 0.7720, 505481, 0.0443, -0.3127, -0.1034, -0.0339, -0.0982, 0.1107, 0.0156, 171, 150
11.7320, -0.3940, -0.6397, -0.2446, 0.0539, -0.0044, 0.7720, 505501, 0.0443, -0.3126, -0.1034, -0.0338, -0.0980, 0.1108, -0.0008, 158, 164
11.7470, -0.2373, -0.7604, 0.1255, 0.0197, -0.0040, 0.7721, 505541, 0.0443, -0.3127, -0.1034, -0.0338, -0.0982, 0.1107, -0.0337, 161, 161
11.7630, -0.2373, -0.7604, 0.1255, 0.0197, -0.0040, 0.7721, 505541, 0.0443, -0.3127, -0.1034, -0.0338, -0.0981, 0.1109, -0.0337, 161, 161
11.7780, -0.2139, -0.3357, -0.0392, 0.0103, -0.0047, 0.7727, 505561, 0.0443, -0.3127, -0.1034, -0.0339, -0.0982, 0.1108, -0.0500, 154, 167
11.8100, 0.4327, -0.9862, 0.0616, -0.0164, -0.0044, 0.7732, 505601, 0.0443, -0.3126, -0.1033, -0.0338, -0.0980, 0.1107, -0.0825, 162, 160
11.8250, 0.4327, -0.9862, 0.0616, -0.0164, -0.0044, 0.7732, 505601, 0.0443, -0.3127, -0.1034, -0.0339, -0.0980, 0.1109, -0.0825, 162, 160
11.8410, -0.4322, -1.2915, 0.0685, -0.0400, -0.0056, 0.7739, 505621, 0.0443, -0.3127, -0.1034, -0.0338, -0.0982, 0.1107, -0.0985, 168, 154
11.8720, -0.4322, -1.2915, 0.0685, -0.0400, -0.0056, 0.7739, 505621, 0.0443, -0.3127, -0.1034, -0.0339, -0.0980, 0.1109, -0.0985, 168, 154
11.8880, -0.2873, -0.9047, 0.1876, -0.1012, -0.0052, 0.7744, 505681, 0.0443, -0.3127, -0.1034, -0.0339, -0.0982, 0.1108, -0.1453, 164, 159
11.9030, -0.2873, -0.9047, 0.1876, -0.1012, -0.0052, 0.7744, 505681, 0.0443, -0.3127, -0.1034, -0.0338, -0.0981, 0.1109, -0.1453, 164, 159
11.9190, 0.1435, -0.5201, 0.0218, -0.1129, -0.0049, 0.7751, 505701, 0.0443, -0.3127, -0.1034, -0.0340, -0.0980, 0.1109, -0.1605, 161, 162
11.9500, 0.0763, -0.8789, 0.2040, -0.1384, -0.0045, 0.7753, 505741, 0.0443, -0.3127, -0.1034, -0.0338, -0.0982, 0.1107, -0.1899, 160, 164
11.9660, 0.0763, -0.8789, 0.2040, -0.1384, -0.0045, 0.7753, 505741, 0.0444, -0.3127, -0.1034, -0.0338, -0.0980, 0.1109, -0.1899, 160, 164
11.9810, -0.5462, -0.5902, -0.2371, -0.1798, -0.0056, 0.7763, 505781, 0.0443, -0.3127, -0.1034, -0.0339, -0.0982, 0.1107, -0.2180, 163, 162
12.0130, 0.1255, -0.7695, -0.0269, -0.1972, -0.0058, 0.7758, 505801, 0.0444, -0.3127, -0.1034, -0.0339, -0.0980, 0.1107, -0.2315, 167, 158
12.0280, 0.1255, -0.7695, -0.0269, -0.1972, -0.0058, 0.7758, 505801, 0.0443, -0.3127, -0.1034, -0.0339, -0.0980, 0.1108, -0.2315, 167, 158
12.0440, -0.3360, -0.3776, 0.0645, -0.2210, -0.0059, 0.7767, 505841, 0.0443, -0.3127, -0.1034, -0.0339, -0.0982, 0.1108, -0.2572, 164, 162
12.0600, -0.3360, -0.3776, 0.0645, -0.2210, -0.0059, 0.7767, 505841, 0.0444, -0.3127, -0.1034, -0.0338, -0.0979, 0.1109, -0.2572, 164, 162
12.0910, 0.0352, -0.2916, 0.0040, -0.2281, -0.0061, 0.7768, 505861, 0.0443, -0.3127, -0.1034, -0.0339, -0.0981, 0.1106, -0.2694, 157, 169
12.1060, 0.1013, -1.0482, 0.1822, -0.2480, -0.0054, 0.7775, 505901, 0.0444, -0.3127, -0.1034, -0.0339, -0.0980, 0.1109, -0.2924, 167, 161
12.1220, 0.1013, -1.0482, 0.1822, -0.2480, -0.0054, 0.7775, 505901, 0.0443, -0.3127, -0.1034, -0.0339, -0.0981, 0.1108, -0.2924, 167, 161
12.1380, -0.0118, -0.4427, -0.2381, -0.2735, -0.0049, 0.7768, 505941, 0.0443, -0.3127, -0.1034, -0.0339, -0.0980, 0.1107, -0.3133, 162, 167
12.1690, 0.0753, -0.8738, 0.2244, -0.2868, -0.0052, 0.7772, 505961, 0.0444, -0.3127, -0.1034, -0.0339, -0.0980, 0.1109, -0.3229, 167, 163
12.1850, 0.0753, -0.8738, 0.2244, -0.2868, -0.0052, 0.7772, 505961, 0.0443, -0.3128, -0.1034, -0.0339, -0.0981, 0.1107, -0.3229, 167, 163
12.2000, -0.1489, -0.1016, -0.3180, -0.3087, -0.0049, 0.7782, 506001, 0.0443, -0.3127, -0.1034, -0.0339, -0.0980, 0.1109, -0.3405, 159, 171
12.2310, 0.3008, -0.4387, 0.0763, -0.3170, -0.0049, 0.7784, 506021, 0.0444, -0.3127, -0.1034, -0.0338, -0.0980, 0.1108, -0.3484, 163, 168
12.2470, 0.3008, -0.4387, 0.0763, -0.3170, -0.0049, 0.7784, 506021, 0.0443, -0.3127, -0.1035, -0.0339, -0.0980, 0.1108, -0.3484, 163, 168
12.2630, -0.1306, -0.1124, -0.1330, -0.3313, -0.0054, 0.7789, 506061, 0.0443, -0.3127, -0.1034, -0.0338, -0.0981, 0.1108, -0.3623, 160, 172
12.2780, -0.1306, -0.1124, -0.1330, -0.3313, -0.0054, 0.7789, 506061, 0.0443, -0.3127, -0.1034, -0.0339, -0.0980, 0.1108, -0.3623, 160, 172
12.3090, -0.2094, -0.5354, 0.1629, -0.3437, -0.0056, 0.7795, 506101, 0.0444, -0.3127, -0.1035, -0.0339, -0.0980, 0.1109, -0.3737, 168, 164
12.3250, -0.1363, -0.3865, -0.0460, -0.3506, -0.0058, 0.7798, 506121, 0.0444, -0.3127, -0.1034, -0.0338, -0.0981, 0.1107, -0.3785, 171, 162
12.3410, -0.1363, -0.3865, -0.0460, -0.3506, -0.0058, 0.7798, 506121, 0.0443, -0.3127, -0.1034, -0.0339, -0.0981, 0.1108, -0.3785, 171, 162
12.3720, -0.0288, -0.4072, 0.0656, -0.3630, -0.0052, 0.7798, 506161, 0.0444, -0.3127, -0.1033, -0.0338, -0.0980, 0.1108, -0.3859, 164, 170
12.3880, 0.0723, -0.3032, 0.0879, -0.3686, -0.0052, 0.7805, 506181, 0.0443, -0.3127, -0.1034, -0.0338, -0.0981, 0.1108, -0.3886, 173, 162
12.4030, 0.0723, -0.3032, 0.0879, -0.3686, -0.0052, 0.7805, 506181, 0.0443, -0.3127, -0.1034, -0.0338, -0.0981, 0.1108, -0.3886, 173, 162
12.4190, 0.0758, -0.2169, 0.1927, -0.3759, -0.0052, 0.7810, 506221, 0.0443, -0.3127, -0.1034, -0.0338, -0.0982, 0.1108, -0.3920, 162, 173
12.4500, 0.0798, -0.3943, 0.2234, -0.3794, -0.0045, 0.7821, 506241, 0.0443, -0.3127, -0.1034, -0.0339, -0.0980, 0.1109, -0.3926, 174, 161
12.4660, 0.0798, -0.3943, 0.2234, -0.3794, -0.0045, 0.7821, 506241, 0.0443, -0.3127, -0.1034, -0.0339, -0.0984, 0.1107, -0.3926, 174, 161
12.4810, 0.2809, 0.0134, -0.0040, -0.3829, -0.0049, 0.7819, 506281, 0.0444, -0.3127, -0.1034, -0.0338, -0.0979, 0.1108, -0.3919, 166, 170
12.5130, -0.2341, -0.0973, 0.0228, -0.3866, -0.0056, 0.7826, 506321, 0.0443, -0.3127, -0.1034, -0.0339, -0.0981, 0.1107, -0.3884, 170, 166
12.5280, -0.2341, -0.0973, 0.0228, -0.3866, -0.0056, 0.7826, 506321, 0.0443, -0.3127, -0.1034, -0.0338, -0.0982, 0.1108, -0.3884, 170, 166
12.5440, 0.1527, 0.3776, -0.2312, -0.3862, -0.0049, 0.7824, 506341, 0.0443, -0.3127, -0.1034, -0.0338, -0.0979, 0.1109, -0.3856, 162, 174
12.5590, 0.1527, 0.3776, -0.2312, -0.3862, -0.0049, 0.7824, 506341, 0.0442, -0.3127, -0.1034, -0.0338, -0.0983, 0.1108, -0.3856, 162, 174
12.5910, -0.0234, -0.2360, 0.1779, -0.3854, -0.0049, 0.7826, 506361, 0.0444, -0.3127, -0.1034, -0.0339, -0.0980, 0.1108, -0.3821, 173, 163
12.6060, 0.0417, 0.5475, -0.3139, -0.3789, -0.0054, 0.7831, 506401, 0.0443, -0.3127, -0.1034, -0.0339, -0.0981, 0.1107, -0.3732, 161, 174
12.6220, 0.0417, 0.5475, -0.3139, -0.3789, -0.0054, 0.7831, 506401, 0.0443, -0.3127, -0.1034, -0.0338, -0.0981, 0.1108, -0.3732, 161, 174
12.6530, 0.0070, 0.2110, 0.0188, -0.3735, -0.0056, 0.7831, 506421, 0.0443, -0.3127, -0.1034, -0.0338, -0.0981, 0.1108, -0.3678, 161, 174
12.6690, -0.2846, 0.5053, -0.2309, -0.3651, -0.0059, 0.7840, 506461, 0.0443, -0.3127, -0.1034, -0.0339, -0.0982, 0.1107, -0.3550, 167, 167
12.6840, -0.2846, 0.5053, -0.2309, -0.3651, -0.0059, 0.7840, 506461, 0.0444, -0.3126, -0.1034, -0.0338, -0.0980, 0.1108, -0.3550, 167, 167
12.7000, 0.2561, -0.0742, 0.1234, -0.3583, -0.0054, 0.7844, 506501, 0.0443, -0.3126, -0.1034, -0.0338, -0.0981, 0.1108, -0.3397, 173, 161
12.7310, -0.3680, 0.3717, -0.0191, -0.3540, -0.0063, 0.7845, 506521, 0.0443, -0.3127, -0.1034, -0.0339, -0.0981, 0.1108, -0.3311, 169, 165
12.7470, -0.3680, 0.3717, -0.0191, -0.3540, -0.0063, 0.7845, 506521, 0.0443, -0.3126, -0.1034, -0.0337, -0.0981, 0.1108, -0.3311, 169, 165
12.7630, 0.0382, 0.2231, 0.0527, -0.3435, -0.0058, 0.7845, 506561, 0.0443, -0.3127, -0.1034, -0.0339, -0.0983, 0.1108, -0.3123, 165, 168
12.7780, 0.0382, 0.2231, 0.0527, -0.3435, -0.0058, 0.7845, 506561, 0.0444, -0.3126, -0.1034, -0.0338, -0.0981, 0.1108, -0.3123, 165, 168
12.8090, 0.0925, 0.0237, 0.1838, -0.3382, -0.0065, 0.7856, 506581, 0.0443, -0.3127, -0.1034, -0.0337, -0.0982, 0.1107, -0.3021, 175, 157
12.8250, -0.0844, 0.8039, -0.0011, -0.3197, -0.0070, 0.7857, 506621, 0.0443, -0.3127, -0.1035, -0.0338, -0.0982, 0.1108, -0.2800, 160, 171
12.8410, -0.0844, 0.8039, -0.0011, -0.3197, -0.0070, 0.7857, 506621, 0.0444, -0.3126, -0.1033, -0.0337, -0.0980, 0.1108, -0.2800, 160, 171
12.8720, -0.3088, 0.8574, -0.1013, -0.2986, -0.0066, 0.7870, 506661, 0.0443, -0.3127, -0.1035, -0.0339, -0.0980, 0.1108, -0.2560, 166, 165
12.8880, -0.0008, 0.6545, -0.0699, -0.2866, -0.0073, 0.7863, 506681, 0.0443, -0.3126, -0.1034, -0.0339, -0.0981, 0.1109, -0.2433, 164, 165
12.9030, -0.0008, 0.6545, -0.0699, -0.2866, -0.0073, 0.7863, 506681, 0.0444, -0.3126, -0.1034, -0.0339, -0.0980, 0.1109, -0.2433, 164, 165
12.9190, -0.3881, 0.5193, 0.0054, -0.2651, -0.0084, 0.7871, 506721, 0.0443, -0.3127, -0.1035, -0.0338, -0.0981, 0.1108, -0.2166, 171, 157
12.9500, 0.3489, 0.6209, -0.1435, -0.2543, -0.0087, 0.7871, 506741, 0.0443, -0.3126, -0.1034, -0.0338, -0.0982, 0.1108, -0.2027, 167, 160
12.9660, 0.3489, 0.6209, -0.1435, -0.2543, -0.0087, 0.7871, 506741, 0.0444, -0.3127, -0.1035, -0.0338, -0.0981, 0.1108, -0.2027, 167, 160
12.9810, 0.0175, 0.2414, 0.1946, -0.2307, -0.0089, 0.7875, 506781, 0.0443, -0.3126, -0.1034, -0.0339, -0.0982, 0.1107, -0.1739, 174, 152
13.0120, 0.0435, 0.9044, -0.0943, -0.2182, -0.0091, 0.7877, 506801, 0.0443, -0.3127, -0.1034, -0.0339, -0.0981, 0.1108, -0.1590, 168, 158
13.0280, 0.0435, 0.9044, -0.0943, -0.2182, -0.0091, 0.7877, 506801, 0.0443, -0.3127, -0.1034, -0.0339, -0.0981, 0.1108, -0.1590, 168, 158
13.0440, 0.2755, 0.2064, 0.3188, -0.1913, -0.0086, 0.7878, 506841, 0.0443, -0.3126, -0.1034, -0.0338, -0.0982, 0.1108, -0.1284, 170, 155
13.0590, 0.2755, 0.2064, 0.3188, -0.1913, -0.0086, 0.7878, 506841, 0.0444, -0.3127, -0.1034, -0.0339, -0.0979, 0.1109, -0.1284, 170, 155
13.0910, 0.0191, 0.9870, -0.1908, -0.1635, -0.0103, 0.7873, 506881, 0.0443, -0.3127, -0.1034, -0.0338, -0.0982, 0.1107, -0.0969, 161, 163
13.1060, 0.2242, 0.8260, 0.1532, -0.1487, -0.0096, 0.7875, 506901, 0.0443, -0.3126, -0.1034, -0.0339, -0.0981, 0.1108, -0.0808, 163, 160
13.1220, 0.2242, 0.8260, 0.1532, -0.1487, -0.0096, 0.7875, 506901, 0.0443, -0.3127, -0.1034, -0.0339, -0.0981, 0.1108, -0.0808, 163, 160
13.1530, 0.1433, 0.8026, -0.0384, -0.1175, -0.0108, 0.7880, 506941, 0.0443, -0.3127, -0.1034, -0.0338, -0.0982, 0.1107, -0.0484, 163, 159
13.1690, 0.2505, 0.9536, -0.1059, -0.1012, -0.0098, 0.7878, 506961, 0.0444, -0.3127, -0.1034, -0.0338, -0.0979, 0.1109, -0.0320, 160, 162
13.1840, 0.2505, 0.9536, -0.1059, -0.1012, -0.0098, 0.7878, 506961, 0.0443, -0.3127, -0.1033, -0.0338, -0.0982, 0.1107, -0.0320, 160, 162
13.2000, -0.0207, 0.9262, 0.0083, -0.0719, -0.0103, 0.7884, 507001, 0.0444, -0.3127, -0.1034, -0.0339, -0.0979, 0.1109, 0.0008, 168, 154
13.2310, 0.1277, 0.9308, 0.2863, -0.0380, -0.0098, 0.7884, 507041, 0.0443, -0.3127, -0.1034, -0.0339, -0.0980, 0.1107, 0.0337, 159, 163
13.2470, 0.1277, 0.9308, 0.2863, -0.0380, -0.0098, 0.7884, 507041, 0.0443, -0.3127, -0.1034, -0.0338, -0.0980, 0.1107, 0.0337, 159, 163
13.2620, 0.1277, 0.9308, 0.2863, -0.0380, -0.0098, 0.7884, 507041, 0.0444, -0.3127, -0.1034, -0.0337, -0.0979, 0.1109, 0.0337, 159, 163
13.2940, -0.2798, 1.1789, -0.0712, 0.0003, -0.0099, 0.7889, 507081, 0.0443, -0.3127, -0.1034, -0.0338, -0.0982, 0.1107, 0.0663, 160, 161
13.3090, -0.2798, 1.1789, -0.0712, 0.0003, -0.0099, 0.7889, 507081, 0.0443, -0.3127, -0.1034, -0.0339, -0.0980, 0.1109, 0.0663, 160, 161
13.3250, 0.3322, 0.7996, -0.0347, 0.0176, -0.0098, 0.7891, 507101, 0.0443, -0.3127, -0.1034, -0.0338, -0.0980, 0.1108, 0.0825, 163, 158
13.3410, 0.3322, 0.7996, -0.0347, 0.0176, -0.0098, 0.7891, 507101, 0.0443, -0.3127, -0.1034, -0.0338, -0.0981, 0.1107, 0.0825, 163, 158
13.3720, -0.3115, 0.6668, 0.0591, 0.0442, -0.0099, 0.7894, 507141, 0.0443, -0.3127, -0.1034, -0.0339, -0.0981, 0.1108, 0.1143, 170, 151
13.3870, -0.0296, 1.0437, -0.0516, 0.0726, -0.0087, 0.7894, 507181, 0.0444, -0.3127, -0.1034, -0.0338, -0.0981, 0.1108, 0.1453, 161, 161
13.4030, -0.0296, 1.0437, -0.0516, 0.0726, -0.0087, 0.7894, 507181, 0.0443, -0.3127, -0.1034, -0.0339, -0.0980, 0.1108, 0.1453, 161, 161
13.4340, 0.0392, 0.5018, 0.2881, 0.0895, -0.0094, 0.7898, 507201, 0.0443, -0.3127, -0.1034, -0.0338, -0.0981, 0.1108, 0.1605, 171, 151
13.4500, -0.3387, 1.2450, -0.2664, 0.1290, -0.0099, 0.7901, 507241, 0.0444, -0.3128, -0.1034, -0.0338, -0.0981, 0.1107, 0.1899, 157, 166
13.4650, -0.3387, 1.2450, -0.2664, 0.1290, -0.0099, 0.7901, 507241, 0.0444, -0.3127, -0.1034, -0.0337, -0.0980, 0.1108, 0.1899, 157, 166
13.4810, 0.4158, 0.7494, 0.1140, 0.1452, -0.0094, 0.7903, 507261, 0.0443, -0.3127, -0.1034, -0.0339, -0.0980, 0.1109, 0.2041, 160, 163
13.5120, -0.2220, 0.9077, -0.1201, 0.1721, -0.0103, 0.7906, 507301, 0.0443, -0.3127, -0.1034, -0.0339, -0.0981, 0.1108, 0.2315, 161, 163
13.5280, -0.2220, 0.9077, -0.1201, 0.1721, -0.0103, 0.7906, 507301, 0.0444, -0.3127, -0.1034, -0.0337, -0.0979, 0.1108, 0.2315, 161, 163
13.5440, -0.0255, 0.5064, 0.0675, 0.1951, -0.0098, 0.7908, 507341, 0.0443, -0.3128, -0.1035, -0.0338, -0.0981, 0.1109, 0.2572, 170, 155
13.5590, -0.0255, 0.5064, 0.0675, 0.1951, -0.0098, 0.7908, 507341, 0.0443, -0.3127, -0.1034, -0.0339, -0.0981, 0.1108, 0.2572, 170, 155
13.5900, -0.1962, 0.7072, 0.1142, 0.2080, -0.0108, 0.7912, 507361, 0.0443, -0.3127, -0.1035, -0.0339, -0.0979, 0.1109, 0.2694, 166, 159
13.6060, -0.2688, 0.8149, -0.0048, 0.2381, -0.0094, 0.7912, 507401, 0.0443, -0.3127, -0.1034, -0.0338, -0.0983, 0.1108, 0.2924, 161, 166
13.6220, -0.2688, 0.8149, -0.0048, 0.2381, -0.0094, 0.7912, 507401, 0.0443, -0.3127, -0.1034, -0.0339, -0.0980, 0.1109, 0.2924, 161, 166
13.6530, -0.0578, 0.9870, -0.2121, 0.2688, -0.0087, 0.7915, 507441, 0.0443, -0.3127, -0.1035, -0.0338, -0.0980, 0.1108, 0.3133, 160, 168
13.6690, -0.0548, 0.9136, -0.0484, 0.2826, -0.0089, 0.7910, 507461, 0.0443, -0.3126, -0.1034, -0.0338, -0.0983, 0.1108, 0.3229, 158, 171
13.6840, -0.0548, 0.9136, -0.0484, 0.2826, -0.0089, 0.7910, 507461, 0.0443, -0.3127, -0.1034, -0.0339, -0.0980, 0.1109, 0.3229, 158, 171
13.7000, -0.4016, 0.7319, -0.0011, 0.3079, -0.0068, 0.7919, 507501, 0.0443, -0.3127, -0.1034, -0.0338, -0.0983, 0.1107, 0.3405, 164, 167
13.7310, -0.0387, 1.0426, -0.2051, 0.3220, -0.0061, 0.7917, 507521, 0.0444, -0.3126, -0.1034, -0.0338, -0.0980, 0.1108, 0.3484, 153, 178
13.7470, -0.0387, 1.0426, -0.2051, 0.3220, -0.0061, 0.7917, 507521, 0.0443, -0.3127, -0.1034, -0.0339, -0.0980, 0.1108, 0.3484, 153, 178
13.7620, 0.0750, 0.3782, 0.1244, 0.3491, -0.0040, 0.7922, 507561, 0.0443, -0.3127, -0.1034, -0.0338, -0.0982, 0.1108, 0.3623, 163, 170
13.7940, 0.3612, 0.3637, 0.0035, 0.3665, -0.0042, 0.7915, 507601, 0.0444, -0.3127, -0.1034, -0.0338, -0.0979, 0.1109, 0.3737, 162, 172
13.8090, 0.3612, 0.3637, 0.0035, 0.3665, -0.0042, 0.7915, 507601, 0.0443, -0.3127, -0.1034, -0.0338, -0.0982, 0.1107, 0.3737, 162, 172
13.8250, -0.2295, 0.0973, 0.1290, 0.3725, -0.0040, 0.7919, 507621, 0.0443, -0.3127, -0.1034, -0.0338, -0.0981, 0.1109, 0.3785, 166, 169
13.8400, -0.2295, 0.0973, 0.1290, 0.3725, -0.0040, 0.7919, 507621, 0.0443, -0.3127, -0.1034, -0.0338, -0.0981, 0.1108, 0.3785, 166, 169
13.8720, 0.2164, 0.7080, -0.2078, 0.3876, -0.0033, 0.7919, 507661, 0.0444, -0.3126, -0.1034, -0.0338, -0.0981, 0.1107, 0.3859, 152, 183
13.8870, -0.0968, 0.3274, 0.0704, 0.3962, -0.0037, 0.7922, 507681, 0.0443, -0.3127, -0.1034, -0.0339, -0.0980, 0.1108, 0.3886, 160, 176
13.9030, -0.0968, 0.3274, 0.0704, 0.3962, -0.0037, 0.7922, 507681, 0.0443, -0.3127, -0.1034, -0.0338, -0.0981, 0.1108, 0.3886, 160, 176
13.9190, 0.2371, 0.5609, -0.1892, 0.4088, -0.0042, 0.7934, 507721, 0.0443, -0.3127, -0.1034, -0.0339, -0.0981, 0.1109, 0.3920, 153, 184
13.9500, 0.1605, -0.3959, 0.2618, 0.4156, -0.0052, 0.7940, 507761, 0.0444, -0.3126, -0.1034, -0.0338, -0.0980, 0.1108, 0.3926, 169, 170
13.9650, 0.1605, -0.3959, 0.2618, 0.4156, -0.0052, 0.7940, 507761, 0.0443, -0.3127, -0.1034, -0.0339, -0.0980, 0.1107, 0.3926, 169, 170
13.9810, 0.0951, 0.0758, -0.0562, 0.4147, -0.0056, 0.7948, 507781, 0.0443, -0.3127, -0.1034, -0.0339, -0.0981, 0.1108, 0.3919, 166, 172
14.0120, 0.0951, 0.0758, -0.0562, 0.4147, -0.0056, 0.7948, 507781, 0.0443, -0.3127, -0.1034, -0.0339, -0.0980, 0.1107, 0.3919, 166, 172
14.0280, 0.2758, -0.2368, 0.3169, 0.4170, -0.0058, 0.7953, 507821, 0.0443, -0.3127, -0.1034, -0.0339, -0.0982, 0.1109, 0.3884, 162, 176
14.0430, 0.2758, -0.2368, 0.3169, 0.4170, -0.0058, 0.7953, 507821, 0.0443, -0.3126, -0.1034, -0.0338, -0.0980, 0.1107, 0.3884, 162, 176
14.0590, 0.1382, -0.0363, -0.0226, 0.4149, -0.0049, 0.7962, 507841, 0.0443, -0.3127, -0.1034, -0.0339, -0.0980, 0.1109, 0.3856, 162, 176
14.0900, 0.3602, -0.2156, 0.2505, 0.4112, -0.0058, 0.7962, 507881, 0.0443, -0.3127, -0.1034, -0.0338, -0.0983, 0.1107, 0.3780, 161, 177
14.1060, 0.3602, -0.2156, 0.2505, 0.4112, -0.0058, 0.7962, 507881, 0.0443, -0.3127, -0.1034, -0.0339, -0.0980, 0.1108, 0.3780, 161, 177
14.1220, -0.3970, 0.2682, -0.2016, 0.4075, -0.0068, 0.7971, 507921, 0.0443, -0.3127, -0.1035, -0.0339, -0.0981, 0.1108, 0.3678, 155, 182
14.1530, 0.3236, -0.0793, 0.0543, 0.4070, -0.0059, 0.7974, 507941, 0.0443, -0.3126, -0.1034, -0.0338, -0.0982, 0.1108, 0.3617, 158, 179
14.1680, 0.3236, -0.0793, 0.0543, 0.4070, -0.0059, 0.7974, 507941, 0.0443, -0.3127, -0.1034, -0.0339, -0.0980, 0.1108, 0.3617, 158, 179
14.1840, -0.4010, -0.1191, -0.0906, 0.4002, -0.0061, 0.7983, 507981, 0.0443, -0.3127, -0.1034, -0.0339, -0.0982, 0.1107, 0.3476, 159, 178
14.2000, -0.4010, -0.1191, -0.0906, 0.4002, -0.0061, 0.7983, 507981, 0.0443, -0.3127, -0.1034, -0.0339, -0.0979, 0.1109, 0.3476, 159, 178
14.2310, 0.3518, -0.3371, -0.0997, 0.3918, -0.0068, 0.7985, 508001, 0.0443, -0.3127, -0.1034, -0.0339, -0.0982, 0.1108, 0.3397, 159, 177
14.2470, -0.3166, -0.3900, 0.0680, 0.3765, -0.0070, 0.7992, 508041, 0.0444, -0.3126, -0.1034, -0.0338, -0.0981, 0.1109, 0.3220, 161, 174
14.2620, -0.3166, -0.3900, 0.0680, 0.3765, -0.0070, 0.7992, 508041, 0.0443, -0.3127, -0.1034, -0.0339, -0.0981, 0.1108, 0.3220, 161, 174
14.2930, 0.0339, -0.5435, -0.0008, 0.3592, -0.0066, 0.7999, 508081, 0.0443, -0.3127, -0.1034, -0.0339, -0.0982, 0.1107, 0.3021, 161, 173
14.3090, -0.1554, -0.6494, 0.1752, 0.3498, -0.0079, 0.8004, 508101, 0.0443, -0.3126, -0.1034, -0.0337, -0.0981, 0.1109, 0.2913, 160, 173
14.3250, -0.1554, -0.6494, 0.1752, 0.3498, -0.0079, 0.8004, 508101, 0.0443, -0.3127, -0.1034, -0.0339, -0.0982, 0.1107, 0.2913, 160, 173
14.3400, 0.1255, -0.5722, -0.1898, 0.3248, -0.0072, 0.8006, 508141, 0.0443, -0.3126, -0.1034, -0.0338, -0.0981, 0.1108, 0.2682, 159, 173
14.3720, -0.0473, -1.1875, 0.1580, 0.3112, -0.0079, 0.8006, 508161, 0.0443, -0.3127, -0.1035, -0.0339, -0.0980, 0.1109, 0.2560, 166, 165
14.3870, -0.0473, -1.1875, 0.1580, 0.3112, -0.0079, 0.8006, 508161, 0.0443, -0.3127, -0.1034, -0.0338, -0.0983, 0.1108, 0.2560, 166, 165
14.4030, -0.0992, -0.3427, -0.2828, 0.2848, -0.0073, 0.8013, 508201, 0.0443, -0.3127, -0.1034, -0.0338, -0.0980, 0.1109, 0.2302, 158, 171
14.4340, 0.2373, -1.1130, 0.1180, 0.2606, -0.0075, 0.8025, 508241, 0.0443, -0.3127, -0.1034, -0.0339, -0.0981, 0.1107, 0.2027, 169, 159
14.4500, 0.2373, -1.1130, 0.1180, 0.2606, -0.0075, 0.8025, 508241, 0.0444, -0.3127, -0.1034, -0.0339, -0.0980, 0.1109, 0.2027, 169, 159
14.4650, -0.2349, -0.4825, -0.2688, 0.2429, -0.0080, 0.8027, 508261, 0.0443, -0.3127, -0.1034, -0.0338, -0.0980, 0.1108, 0.1885, 164, 163
14.4810, -0.2349, -0.4825, -0.2688, 0.2429, -0.0080, 0.8027, 508261, 0.0443, -0.3127, -0.1034, -0.0339, -0.0982, 0.1108, 0.1885, 164, 163
14.5120, 0.0833, -1.2294, 0.2398, 0.2077, -0.0087, 0.8030, 508301, 0.0443, -0.3127, -0.1034, -0.0339, -0.0980, 0.1109, 0.1590, 170, 155
14.5280, -0.4639, -0.4370, -0.1204, 0.1923, -0.0094, 0.8030, 508321, 0.0443, -0.3127, -0.1034, -0.0338, -0.0981, 0.1108, 0.1438, 164, 161
14.5430, -0.4639, -0.4370, -0.1204, 0.1923, -0.0094, 0.8030, 508321, 0.0443, -0.3127, -0.1034, -0.0338, -0.0981, 0.1109, 0.1438, 164, 161
14.5590, 0.2887, -0.9991, 0.1537, 0.1632, -0.0087, 0.8037, 508361, 0.0444, -0.3127, -0.1034, -0.0338, -0.0979, 0.1108, 0.1127, 164, 160
14.5900, -0.4145, -0.7862, -0.0825, 0.1489, -0.0087, 0.8041, 508381, 0.0443, -0.3127, -0.1034, -0.0339, -0.0980, 0.1109, 0.0969, 165, 158
14.6060, -0.4145, -0.7862, -0.0825, 0.1489, -0.0087, 0.8041, 508381, 0.0443, -0.3126, -0.1034, -0.0338, -0.0982, 0.1109, 0.0969, 165, 158
14.6210, 0.2567, -1.0378, -0.0218, 0.1197, -0.0082, 0.8046, 508421, 0.0443, -0.3127, -0.1034, -0.0338, -0.0980, 0.1108, 0.0647, 162, 161
14.6530, -0.1930, -0.9069, 0.0847, 0.0878, -0.0086, 0.8055, 508461, 0.0443, -0.3127, -0.1034, -0.0339, -0.0981, 0.1108, 0.0320, 163, 159
14.6680, -0.1930, -0.9069, 0.0847, 0.0878, -0.0086, 0.8055, 508461, 0.0443, -0.3127, -0.1033, -0.0338, -0.0980, 0.1108, 0.0320, 163, 159
14.6840, 0.2897, -0.7198, -0.0581, 0.0726, -0.0079, 0.8055, 508481, 0.0443, -0.3127, -0.1034, -0.0339, -0.0980, 0.1107, 0.0156, 156, 166
14.7000, 0.2897, -0.7198, -0.0581, 0.0726, -0.0079, 0.8055, 508481, 0.0443, -0.3127, -0.1034, -0.0339, -0.0982, 0.1107, 0.0156, 156, 166
14.7310, -0.0414, -0.8717, 0.1505, 0.0581, -0.0079, 0.8058, 508501, 0.0444, -0.3127, -0.1034, -0.0338, -0.0979, 0.1108, -0.0008, 161, 160
14.7460, -0.0065, -0.6553, -0.2156, 0.0279, -0.0072, 0.8067, 508541, 0.0443, -0.3127, -0.1034, -0.0339, -0.0981, 0.1107, -0.0337, 155, 167
14.7620, -0.0065, -0.6553, -0.2156, 0.0279, -0.0072, 0.8067, 508541, 0.0443, -0.3127, -0.1034, -0.0338, -0.0982, 0.1107, -0.0337, 155, 167
14.7930, -0.1739, -0.8523, 0.0382, 0.0119, -0.0079, 0.8070, 508561, 0.0443, -0.3127, -0.1034, -0.0339, -0.0980, 0.1109, -0.0500, 156, 165
14.8090, 0.0500, -0.6978, -0.2043, -0.0234, -0.0082, 0.8074, 508601, 0.0443, -0.3127, -0.1034, -0.0338, -0.0982, 0.1108, -0.0825, 158, 163
14.8250, 0.0500, -0.6978, -0.2043, -0.0234, -0.0082, 0.8074, 508601, 0.0444, -0.3127, -0.1034, -0.0339, -0.0980, 0.1109, -0.0825, 158, 163
14.8400, 0.0113, -1.1523, 0.2578, -0.0604, -0.0087, 0.8079, 508641, 0.0443, -0.3127, -0.1034, -0.0339, -0.0980, 0.1107, -0.1143, 168, 153
14.8710, -0.2137, -0.7394, -0.2564, -0.0777, -0.0086, 0.8088, 508661, 0.0444, -0.3127, -0.1034, -0.0338, -0.0980, 0.1108, -0.1299, 167, 155
14.8870, -0.2137, -0.7394, -0.2564, -0.0777, -0.0086, 0.8088, 508661, 0.0443, -0.3127, -0.1034, -0.0339, -0.0980, 0.1109, -0.1299, 167, 155
14.9030, 0.1344, -0.6617, -0.2002, -0.0918, -0.0086, 0.8084, 508681, 0.0443, -0.3127, -0.1034, -0.0338, -0.0982, 0.1107, -0.1453, 152, 170
14.9340, -0.0056, -0.6015, -0.2777, -0.1414, -0.0091, 0.8088, 508741, 0.0444, -0.3127, -0.1034, -0.0339, -0.0980, 0.1108, -0.1899, 158, 166
14.9490, -0.0056, -0.6015, -0.2777, -0.1414, -0.0091, 0.8088, 508741, 0.0443, -0.3127, -0.1034, -0.0338, -0.0983, 0.1108, -0.1899, 158, 166
14.9650, 0.2279, -1.1442, 0.1779, -0.1587, -0.0091, 0.8093, 508761, 0.0444, -0.3127, -0.1034, -0.0339, -0.0980, 0.1108, -0.2041, 171, 152
14.9810, 0.2279, -1.1442, 0.1779, -0.1587, -0.0091, 0.8093, 508761, 0.0443, -0.3127, -0.1034, -0.0339, -0.0980, 0.1109, -0.2041, 171, 152
15.0120, -0.2220, -0.7891, 0.1175, -0.1749, -0.0082, 0.8098, 508781, 0.0443, -0.3127, -0.1034, -0.0338, -0.0982, 0.1108, -0.2180, 165, 159
15.0280, 0.3932, -0.7813, -0.1008, -0.2042, -0.0077, 0.8100, 508821, 0.0444, -0.3127, -0.1034, -0.0338, -0.0980, 0.1109, -0.2446, 162, 164
15.0430, 0.3932, -0.7813, -0.1008, -0.2042, -0.0077, 0.8100, 508821, 0.0444, -0.3127, -0.1034, -0.0338, -0.0980, 0.1107, -0.2446, 162, 164
15.0740, -0.1080, -0.7980, 0.1003, -0.2173, -0.0079, 0.8104, 508841, 0.0443, -0.3127, -0.1035, -0.0338, -0.0981, 0.1108, -0.2572, 166, 160
15.0900, 0.0172, -0.3182, -0.2139, -0.2386, -0.0079, 0.8111, 508881, 0.0443, -0.3126, -0.1034, -0.0338, -0.0981, 0.1108, -0.2812, 158, 169
15.1060, 0.0172, -0.3182, -0.2139, -0.2386, -0.0079, 0.8111, 508881, 0.0443, -0.3127, -0.1034, -0.0339, -0.0981, 0.1106, -0.2812, 158, 169
15.1210, 0.1255, -0.9867, 0.2500, -0.2630, -0.0080, 0.8123, 508921, 0.0444, -0.3126, -0.1034, -0.0339, -0.0981, 0.1108, -0.3031, 172, 156
15.1530, -0.1903, -0.3852, -0.3115, -0.2754, -0.0086, 0.8125, 508941, 0.0443, -0.3127, -0.1034, -0.0338, -0.0981, 0.1108, -0.3133, 161, 167
15.1680, -0.1903, -0.3852, -0.3115, -0.2754, -0.0086, 0.8125, 508941, 0.0443, -0.3127, -0.1035, -0.0339, -0.0981, 0.1108, -0.3133, 161, 167
15.1840, 0.2763, -0.9448, 0.2193, -0.2976, -0.0080, 0.8130, 508981, 0.0443, -0.3126, -0.1034, -0.0338, -0.0981, 0.1108, -0.3320, 169, 161
15.1990, 0.2763, -0.9448, 0.2193, -0.2976, -0.0080, 0.8130, 508981, 0.0443, -0.3127, -0.1034, -0.0338, -0.0982, 0.1109, -0.3320, 169, 161
15.2310, -0.4174, -0.1339, -0.1368, -0.3070, -0.0086, 0.8131, 509001, 0.0443, -0.3127, -0.1034, -0.0339, -0.0981, 0.1108, -0.3405, 159, 172
15.2460, 0.2277, -0.5155, 0.0954, -0.3234, -0.0073, 0.8137, 509041, 0.0443, -0.3126, -0.1034, -0.0338, -0.0982, 0.1108, -0.3557, 165, 166
15.2620, 0.2277, -0.5155, 0.0954, -0.3234, -0.0073, 0.8137, 509041, 0.0443, -0.3127, -0.1035, -0.0339, -0.0982, 0.1107, -0.3557, 165, 166
15.2930, 0.0269, 0.0817, -0.1844, -0.3360, -0.0077, 0.8144, 509081, 0.0443, -0.3126, -0.1034, -0.0338, -0.0982, 0.1108, -0.3684, 164, 168
15.3090, -0.0847, -0.1201, -0.1406, -0.3402, -0.0070, 0.8144, 509101, 0.0444, -0.3127, -0.1035, -0.0339, -0.0980, 0.1108, -0.3737, 159, 173
15.3240, -0.0847, -0.1201, -0.1406, -0.3402, -0.0070, 0.8144, 509101, 0.0443, -0.3127, -0.1034, -0.0339, -0.0982, 0.1108, -0.3737, 159, 173
15.3400, -0.0255, -0.2188, 0.0032, -0.3522, -0.0073, 0.8159, 509141, 0.0444, -0.3127, -0.1034, -0.0338, -0.0980, 0.1108, -0.3825, 169, 165
15.3710, -0.0801, 0.1210, -0.2486, -0.3564, -0.0072, 0.8158, 509161, 0.0443, -0.3127, -0.1034, -0.0339, -0.0980, 0.1108, -0.3859, 158, 175
15.3870, -0.0801, 0.1210, -0.2486, -0.3564, -0.0072, 0.8158, 509161, 0.0443, -0.3127, -0.1034, -0.0338, -0.0982, 0.1107, -0.3859, 158, 175
15.4030, -0.1003, -0.4370, 0.1887, -0.3679, -0.0077, 0.8170, 509201, 0.0443, -0.3127, -0.1034, -0.0338, -0.0980, 0.1109, -0.3906, 173, 162
15.4340, 0.2516, -0.2599, 0.0417, -0.3756, -0.0087, 0.8173, 509241, 0.0443, -0.3127, -0.1034, -0.0340, -0.0982, 0.1106, -0.3926, 167, 168
15.4490, 0.2516, -0.2599, 0.0417, -0.3756, -0.0087, 0.8173, 509241, 0.0443, -0.3127, -0.1034, -0.0338, -0.0980, 0.1107, -0.3926, 167, 168
15.4650, -0.1024, -0.2564, 0.1126, -0.3789, -0.0084, 0.8180, 509261, 0.0443, -0.3127, -0.1034, -0.0339, -0.0980, 0.1108, -0.3926, 169, 167
15.4810, -0.1024, -0.2564, 0.1126, -0.3789, -0.0084, 0.8180, 509261, 0.0443, -0.3127, -0.1034, -0.0338, -0.0982, 0.1108, -0.3926, 169, 167
15.5120, 0.1903, 0.3524, -0.2078, -0.3800, -0.0082, 0.8186, 509301, 0.0444, -0.3127, -0.1034, -0.0338, -0.0979, 0.1109, -0.3905, 160, 175
15.5270, -0.2271, -0.0492, 0.1234, -0.3786, -0.0082, 0.8187, 509321, 0.0443, -0.3127, -0.1034, -0.0339, -0.0983, 0.1107, -0.3884, 162, 173
15.5430, -0.2271, -0.0492, 0.1234, -0.3786, -0.0082, 0.8187, 509321, 0.0444, -0.3127, -0.1034, -0.0339, -0.0979, 0.1109, -0.3884, 162, 173
15.5740, 0.0126, 0.5196, -0.2285, -0.3733, -0.0089, 0.8200, 509361, 0.0443, -0.3127, -0.1034, -0.0338, -0.0981, 0.1108, -0.3821, 161, 174
15.5900, 0.1793, -0.3373, 0.2938, -0.3679, -0.0091, 0.8217, 509401, 0.0443, -0.3127, -0.1034, -0.0337, -0.0982, 0.1108, -0.3732, 168, 166
15.6060, 0.1793, -0.3373, 0.2938, -0.3679, -0.0091, 0.8217, 509401, 0.0443, -0.3127, -0.1034, -0.0338, -0.0980, 0.1107, -0.3732, 168, 166
15.6210, -0.3502, 0.1736, -0.0726, -0.3679, -0.0089, 0.8221, 509421, 0.0443, -0.3127, -0.1034, -0.0339, -0.0981, 0.1109, -0.3678, 169, 166
15.6520, -0.0865, 0.4134, -0.1817, -0.3662, -0.0096, 0.8221, 509441, 0.0443, -0.3127, -0.1034, -0.0339, -0.0981, 0.1108, -0.3617, 159, 175
15.6680, -0.0865, 0.4134, -0.1817, -0.3662, -0.0096, 0.8221, 509441, 0.0443, -0.3127, -0.1034, -0.0338, -0.0980, 0.1109, -0.3617, 159, 175
15.6840, -0.3567, 0.0782, 0.0941, -0.3627, -0.0098, 0.8234, 509481, 0.0443, -0.3127, -0.1034, -0.0338, -0.0982, 0.1107, -0.3476, 170, 165
15.6990, -0.3567, 0.0782, 0.0941, -0.3627, -0.0098, 0.8234, 509481, 0.0443, -0.3127, -0.1034, -0.0338, -0.0980, 0.1108, -0.3476, 170, 165
15.7310, -0.0777, 0.2906, -0.0825, -0.3578, -0.0110, 0.8236, 509501, 0.0443, -0.3127, -0.1034, -0.0338, -0.0982, 0.1108, -0.3397, 166, 168
15.7460, -0.1425, 0.1489, 0.2250, -0.3447, -0.0106, 0.8243, 509541, 0.0443, -0.3127, -0.1035, -0.0339, -0.0980, 0.1109, -0.3220, 166, 167
15.7620, -0.1425, 0.1489, 0.2250, -0.3447, -0.0106, 0.8243, 509541, 0.0444, -0.3126, -0.1033, -0.0338, -0.0980, 0.1107, -0.3220, 166, 167
15.7930, -0.0016, 0.2196, 0.2024, -0.3374, -0.0108, 0.8248, 509561, 0.0443, -0.3127, -0.1034, -0.0339, -0.0981, 0.1108, -0.3123, 169, 164
15.8090, 0.0417, 0.3790, 0.1559, -0.3143, -0.0105, 0.8245, 509601, 0.0443, -0.3127, -0.1034, -0.0338, -0.0981, 0.1108, -0.2913, 159, 172
15.8240, 0.0417, 0.3790, 0.1559, -0.3143, -0.0105, 0.8245, 509601, 0.0444, -0.3127, -0.1034, -0.0339, -0.0979, 0.1108, -0.2913, 159, 172
15.8400, -0.1873, 0.6494, -0.2715, -0.2953, -0.0110, 0.8250, 509641, 0.0444, -0.3127, -0.1034, -0.0339, -0.0981, 0.1107, -0.2682, 165, 165
15.8710, 0.1739, 0.6451, -0.1263, -0.2861, -0.0105, 0.8248, 509661, 0.0443, -0.3126, -0.1034, -0.0338, -0.0980, 0.1109, -0.2560, 159, 170
15.8870, 0.1739, 0.6451, -0.1263, -0.2861, -0.0105, 0.8248, 509661, 0.0443, -0.3127, -0.1035, -0.0339, -0.0981, 0.1108, -0.2560, 159, 170
15.9020, -0.3107, 0.7152, -0.0457, -0.2693, -0.0113, 0.8259, 509701, 0.0444, -0.3127, -0.1034, -0.0339, -0.0980, 0.1108, -0.2302, 164, 164
15.9340, -0.1441, 0.6134, -0.1153, -0.2606, -0.0113, 0.8259, 509721, 0.0444, -0.3127, -0.1034, -0.0338, -0.0979, 0.1108, -0.2166, 164, 164
15.9490, -0.1441, 0.6134, -0.1153, -0.2606, -0.0113, 0.8259, 509721, 0.0443, -0.3127, -0.1034, -0.0339, -0.0981, 0.1108, -0.2166, 164, 164
15.9650, -0.2250, 0.3637, 0.1887, -0.2388, -0.0106, 0.8261, 509761, 0.0443, -0.3127, -0.1034, -0.0339, -0.0980, 0.1108, -0.1885, 173, 154
15.9810, -0.2250, 0.3637, 0.1887, -0.2388, -0.0106, 0.8261, 509761, 0.0443, -0.3127, -0.1034, -0.0338, -0.0981, 0.1108, -0.1885, 173, 154
16.0120, -0.0374, 1.0534, -0.2083, -0.2093, -0.0106, 0.8262, 509801, 0.0443, -0.3127, -0.1034, -0.0339, -0.0981, 0.1108, -0.1590, 156, 170
16.0270, 0.0032, 0.5478, 0.2739, -0.1937, -0.0108, 0.8269, 509821, 0.0444, -0.3127, -0.1034, -0.0338, -0.0978, 0.1109, -0.1438, 160, 165
16.0430, 0.0032, 0.5478, 0.2739, -0.1937, -0.0108, 0.8269, 509821, 0.0443, -0.3127, -0.1034, -0.0338, -0.0982, 0.1107, -0.1438, 160, 165
16.0740, 0.0231, 0.8104, -0.2639, -0.1642, -0.0108, 0.8271, 509861, 0.0443, -0.3126, -0.1034, -0.0339, -0.0982, 0.1108, -0.1127, 161, 163
16.0900, 0.2489, 0.4389, 0.1357, -0.1511, -0.0105, 0.8269, 509881, 0.0443, -0.3127, -0.1034, -0.0339, -0.0980, 0.1108, -0.0969, 162, 162
16.1050, 0.2489, 0.4389, 0.1357, -0.1511, -0.0105, 0.8269, 509881, 0.0443, -0.3127, -0.1034, -0.0339, -0.0981, 0.1107, -0.0969, 162, 162
16.1210, -0.3650, 0.8641, -0.2008, -0.1271, -0.0110, 0.8273, 509921, 0.0444, -0.3127, -0.1035, -0.0339, -0.0979, 0.1108, -0.0647, 162, 161
16.1520, 0.0935, 0.5978, 0.1253, -0.0991, -0.0112, 0.8276, 509961, 0.0444, -0.3127, -0.1034, -0.0338, -0.0982, 0.1107, -0.0320, 168, 154
16.1680, 0.0935, 0.5978, 0.1253, -0.0991, -0.0112, 0.8276, 509961, 0.0443, -0.3127, -0.1034, -0.0339, -0.0981, 0.1108, -0.0320, 168, 154
16.1840, -0.2873, 0.9222, 0.0091, -0.0826, -0.0124, 0.8278, 509981, 0.0443, -0.3127, -0.1034, -0.0339, -0.0980, 0.1108, -0.0156, 162, 160
16.2150, 0.1037, 0.9464, -0.0124, -0.0449, -0.0108, 0.8273, 510021, 0.0444, -0.3127, -0.1034, -0.0339, -0.0982, 0.1107, 0.0173, 160, 162
16.2300, 0.1037, 0.9464, -0.0124, -0.0449, -0.0108, 0.8273, 510021, 0.0443, -0.3127, -0.1035, -0.0339, -0.0980, 0.1108, 0.0173, 160, 162
16.2460, -0.0202, 0.5760, 0.2148, -0.0274, -0.0103, 0.8276, 510041, 0.0443, -0.3127, -0.1034, -0.0339, -0.0981, 0.1107, 0.0337, 165, 156
16.2620, -0.0202, 0.5760, 0.2148, -0.0274, -0.0103, 0.8276, 510041, 0.0444, -0.3127, -0.1034, -0.0338, -0.0981, 0.1108, 0.0337, 165, 156
16.2930, 0.0124, 1.0431, -0.2209, 0.0073, -0.0098, 0.8276, 510081, 0.0444, -0.3126, -0.1034, -0.0338, -0.0979, 0.1108, 0.0663, 156, 165
16.3090, -0.1293, 0.8657, 0.1239, 0.0384, -0.0091, 0.8285, 510121, 0.0443, -0.3127, -0.1034, -0.0339, -0.0982, 0.1108, 0.0985, 161, 161
16.3240, -0.1293, 0.8657, 0.1239, 0.0384, -0.0091, 0.8285, 510121, 0.0443, -0.3127, -0.1034, -0.0338, -0.0981, 0.1108, 0.0985, 161, 161
16.3400, -0.1293, 0.8657, 0.1239, 0.0384, -0.0091, 0.8285, 510121, 0.0443, -0.3126, -0.1034, -0.0338, -0.0981, 0.1108, 0.0985, 161, 161
16.3710, -0.1634, 0.9423, -0.1387, 0.0677, -0.0103, 0.8275, 510161, 0.0443, -0.3127, -0.1034, -0.0338, -0.0981, 0.1108, 0.1299, 160, 162
16.3870, -0.1634, 0.9423, -0.1387, 0.0677, -0.0103, 0.8275, 510161, 0.0444, -0.3126, -0.1034, -0.0339, -0.0979, 0.1107, 0.1299, 160, 162
16.4020, -0.3978, 0.9149, -0.1675, 0.0972, -0.0096, 0.8282, 510201, 0.0443, -0.3127, -0.1034, -0.0339, -0.0980, 0.1107, 0.1605, 161, 161
16.4340, 0.2930, 1.0361, -0.0871, 0.1147, -0.0089, 0.8280, 510221, 0.0443, -0.3127, -0.1034, -0.0338, -0.0982, 0.1108, 0.1754, 157, 165
16.4490, 0.2930, 1.0361, -0.0871, 0.1147, -0.0089, 0.8280, 510221, 0.0443, -0.3127, -0.1034, -0.0338, -0.0980, 0.1108, 0.1754, 157, 165
16.4650, -0.3962, 0.8453, 0.1666, 0.1520, -0.0082, 0.8289, 510261, 0.0443, -0.3127, -0.1035, -0.0339, -0.0982, 0.1108, 0.2041, 160, 164
16.4800, -0.3962, 0.8453, 0.1666, 0.1520, -0.0082, 0.8289, 510261, 0.0443, -0.3126, -0.1034, -0.0338, -0.0982, 0.1109, 0.2041, 160, 164
16.5120, 0.2430, 0.9781, -0.0376, 0.1714, -0.0082, 0.8290, 510281, 0.0443, -0.3127, -0.1034, -0.0339, -0.0980, 0.1109, 0.2180, 155, 169
16.5270, -0.2892, 0.4932, 0.1744, 0.2004, -0.0087, 0.8296, 510321, 0.0443, -0.3127, -0.1034, -0.0339, -0.0982, 0.1107, 0.2446, 165, 160
16.5430, -0.2892, 0.4932, 0.1744, 0.2004, -0.0087, 0.8296, 510321, 0.0444, -0.3127, -0.1034, -0.0338, -0.0979, 0.1109, 0.2446, 165, 160
16.5740, 0.2086, 0.9741, -0.2010, 0.2316, -0.0077, 0.8297, 510361, 0.0443, -0.3127, -0.1035, -0.0338, -0.0983, 0.1108, 0.2694, 155, 171
16.5900, -0.1070, 0.6233, 0.2199, 0.2461, -0.0077, 0.8301, 510381, 0.0443, -0.3126, -0.1034, -0.0338, -0.0982, 0.1109, 0.2812, 158, 169
16.6050, -0.1070, 0.6233, 0.2199, 0.2461, -0.0077, 0.8301, 510381, 0.0443, -0.3127, -0.1034, -0.0338, -0.0979, 0.1108, 0.2812, 158, 169
16.6210, 0.1368, 1.0227, -0.1865, 0.2751, -0.0075, 0.8311, 510421, 0.0443, -0.3127, -0.1034, -0.0338, -0.0982, 0.1107, 0.3031, 153, 175
16.6520, -0.0392, 0.6900, -0.2000, 0.2883, -0.0075, 0.8303, 510441, 0.0443, -0.3127, -0.1034, -0.0338, -0.0980, 0.1109, 0.3133, 158, 171
16.6680, -0.0392, 0.6900, -0.2000, 0.2883, -0.0075, 0.8303, 510441, 0.0442, -0.3127, -0.1034, -0.0339, -0.0982, 0.1107, 0.3133, 158, 171
16.6830, -0.0392, 0.6900, -0.2000, 0.2883, -0.0075, 0.8303, 510441, 0.0444, -0.3127, -0.1034, -0.0339, -0.0981, 0.1108, 0.3133, 158, 171
16.7150, 0.2494, 0.2201, 0.3169, 0.3281, -0.0063, 0.8320, 510521, 0.0443, -0.3127, -0.1034, -0.0338, -0.0979, 0.1109, 0.3484, 167, 165
16.7300, 0.2494, 0.2201, 0.3169, 0.3281, -0.0063, 0.8320, 510521, 0.0443, -0.3127, -0.1034, -0.0339, -0.0982, 0.1106, 0.3484, 167, 165
16.7460, -0.1865, 0.3629, 0.0938, 0.3374, -0.0058, 0.8330, 510541, 0.0443, -0.3127, -0.1034, -0.0338, -0.0981, 0.1109, 0.3557, 169, 164
16.7620, -0.1865, 0.3629, 0.0938, 0.3374, -0.0058, 0.8330, 510541, 0.0443, -0.3127, -0.1034, -0.0339, -0.0981, 0.1106, 0.3557, 169, 164
16.7930, 0.1908, 0.3545, 0.1177, 0.3553, -0.0070, 0.8323, 510581, 0.0443, -0.3127, -0.1034, -0.0339, -0.0980, 0.1109, 0.3684, 160, 173
16.8080, 0.3725, 0.2279, 0.1997, 0.3639, -0.0068, 0.8325, 510601, 0.0443, -0.3127, -0.1033, -0.0338, -0.0980, 0.1107, 0.3737, 166, 169
16.8240, 0.3725, 0.2279, 0.1997, 0.3639, -0.0068, 0.8325, 510601, 0.0443, -0.3127, -0.1034, -0.0338, -0.0982, 0.1108, 0.3737, 166, 169
16.8400, 0.3491, 0.4658, -0.0427, 0.3822, -0.0070, 0.8323, 510641, 0.0443, -0.3127, -0.1034, -0.0339, -0.0980, 0.1109, 0.3825, 158, 178
16.8710, -0.3422, 0.3204, 0.0196, 0.4011, -0.0070, 0.8329, 510681, 0.0442, -0.3127, -0.1034, -0.0339, -0.0983, 0.1107, 0.3886, 160, 177
16.8870, -0.3422, 0.3204, 0.0196, 0.4011, -0.0070, 0.8329, 510681, 0.0443, -0.3127, -0.1034, -0.0339, -0.0980, 0.1108, 0.3886, 160, 177
16.9020, 0.1954, 0.4080, -0.0879, 0.4077, -0.0072, 0.8325, 510701, 0.0443, -0.3127, -0.1034, -0.0338, -0.0981, 0.1108, 0.3906, 158, 179
16.9330, -0.2820, 0.1473, 0.1094, 0.4196, -0.0063, 0.8330, 510741, 0.0443, -0.3127, -0.1034, -0.0339, -0.0980, 0.1108, 0.3926, 159, 179
16.9490, -0.2820, 0.1473, 0.1094, 0.4196, -0.0063, 0.8330, 510741, 0.0443, -0.3127, -0.1034, -0.0339, -0.0982, 0.1109, 0.3926, 159, 179
16.9650, -0.0986, 0.3282, 0.0013, 0.4231, -0.0056, 0.8341, 510761, 0.0443, -0.3127, -0.1034, -0.0339, -0.0980, 0.1108, 0.3926, 161, 178
16.9800, -0.0986, 0.3282, 0.0013, 0.4231, -0.0056, 0.8341, 510761, 0.0443, -0.3127, -0.1034, -0.0339, -0.0980, 0.1109, 0.3926, 161, 178
17.0110, -0.1067, -0.0718, 0.0941, 0.4255, -0.0052, 0.8346, 510801, 0.0443, -0.3127, -0.1034, -0.0338, -0.0982, 0.1108, 0.3905, 161, 178
17.0270, -0.0427, -0.2543, 0.1790, 0.4259, -0.0049, 0.8353, 510821, 0.0443, -0.3127, -0.1034, -0.0339, -0.0979, 0.1109, 0.3884, 167, 172
17.0430, -0.0427, -0.2543, 0.1790, 0.4259, -0.0049, 0.8353, 510821, 0.0443, -0.3127, -0.1034, -0.0339, -0.0982, 0.1107, 0.3884, 167, 172
17.0740, 0.1395, 0.2690, -0.2080, 0.4257, -0.0047, 0.8353, 510841, 0.0444, -0.3127, -0.1034, -0.0338, -0.0980, 0.1108, 0.3856, 155, 183
17.0900, 0.1089, -0.4443, 0.2656, 0.4246, -0.0049, 0.8358, 510881, 0.0443, -0.3127, -0.1034, -0.0339, -0.0981, 0.1108, 0.3780, 161, 178
17.1050, 0.1089, -0.4443, 0.2656, 0.4246, -0.0049, 0.8358, 510881, 0.0444, -0.3127, -0.1034, -0.0339, -0.0981, 0.1108, 0.3780, 161, 178
17.1210, -0.0887, 0.0239, -0.2731, 0.4171, -0.0049, 0.8358, 510921, 0.0443, -0.3127, -0.1034, -0.0339, -0.0980, 0.1109, 0.3678, 154, 184
17.1520, 0.0567, -0.3352, 0.2994, 0.4133, -0.0051, 0.8365, 510941, 0.0443, -0.3127, -0.1034, -0.0338, -0.0982, 0.1107, 0.3617, 162, 177
17.1680, 0.0567, -0.3352, 0.2994, 0.4133, -0.0051, 0.8365, 510941, 0.0444, -0.3127, -0.1034, -0.0339, -0.0979, 0.1109, 0.3617, 162, 177
17.1830, 0.0745, -0.5290, 0.1715, 0.4075, -0.0045, 0.8376, 510961, 0.0443, -0.3127, -0.1034, -0.0338, -0.0981, 0.1107, 0.3550, 166, 172
17.2150, 0.2486, -0.5902, 0.2889, 0.3927, -0.0037, 0.8383, 511021, 0.0443, -0.3127, -0.1034, -0.0338, -0.0983, 0.1108, 0.3311, 163, 174
17.2300, 0.2486, -0.5902, 0.2889, 0.3927, -0.0037, 0.8383, 511021, 0.0444, -0.3127, -0.1034, -0.0339, -0.0980, 0.1109, 0.3311, 163, 174
17.2460, 0.0607, -0.3537, -0.0191, 0.3862, -0.0030, 0.8388, 511041, 0.0443, -0.3127, -0.1034, -0.0339, -0.0983, 0.1107, 0.3220, 157, 178
17.2610, 0.0607, -0.3537, -0.0191, 0.3862, -0.0030, 0.8388, 511041, 0.0444, -0.3127, -0.1034, -0.0339, -0.0980, 0.1108, 0.3220, 157, 178
17.2930, 0.0863, -0.4384, -0.2760, 0.3773, -0.0045, 0.8379, 511061, 0.0443, -0.3127, -0.1034, -0.0339, -0.0982, 0.1108, 0.3123, 158, 177
17.3080, -0.3712, -0.8373, 0.0460, 0.3519, -0.0030, 0.8395, 511101, 0.0443, -0.3127, -0.1034, -0.0339, -0.0981, 0.1108, 0.2913, 166, 167
17.3240, -0.3712, -0.8373, 0.0460, 0.3519, -0.0030, 0.8395, 511101, 0.0443, -0.3127, -0.1034, -0.0339, -0.0980, 0.1109, 0.2913, 166, 167
17.3400, -0.2317, -0.2733, -0.2548, 0.3389, -0.0042, 0.8395, 511121, 0.0443, -0.3127, -0.1034, -0.0339, -0.0981, 0.1107, 0.2800, 154, 178
17.3710, -0.2008, -0.6725, 0.1191, 0.3164, -0.0045, 0.8402, 511161, 0.0444, -0.3127, -0.1034, -0.0338, -0.0980, 0.1109, 0.2560, 162, 169
17.3860, -0.2008, -0.6725, 0.1191, 0.3164, -0.0045, 0.8402, 511161, 0.0444, -0.3127, -0.1034, -0.0339, -0.0980, 0.1108, 0.2560, 162, 169
17.4020, 0.4932, -0.5093, -0.0546, 0.2993, -0.0044, 0.8411, 511201, 0.0443, -0.3127, -0.1034, -0.0338, -0.0981, 0.1107, 0.2302, 155, 175
17.4330, -0.0554, -0.7738, 0.1029, 0.2876, -0.0042, 0.8418, 511221, 0.0444, -0.3127, -0.1034, -0.0338, -0.0980, 0.1109, 0.2166, 163, 166
17.4490, -0.0554, -0.7738, 0.1029, 0.2876, -0.0042, 0.8418, 511221, 0.0443, -0.3127, -0.1034, -0.0338, -0.0982, 0.1107, 0.2166, 163, 166
17.4650, -0.0320, -0.7722, -0.0900, 0.2585, -0.0040, 0.8421, 511261, 0.0444, -0.3126, -0.1034, -0.0338, -0.0981, 0.1109, 0.1885, 160, 168
17.4800, -0.0320, -0.7722, -0.0900, 0.2585, -0.0040, 0.8421, 511261, 0.0443, -0.3127, -0.1034, -0.0338, -0.0981, 0.1107, 0.1885, 160, 168
