time (s), gyro_x (rad/s), gyro_y (rad/s), gyro_z (rad/s), imu_pitch (rad), imu_roll (rad), imu_yaw (rad), counter, x (m), y (m), z (m), yaw (rad), pitch (rad), roll (rad), angle_pitch_desired (rad), mu1, mu2
0.0000, -0.0962, 5.3267, 0.0930, 0.7224, -0.0188, 0.9132, 656582, 0.0443, -0.3127, -0.1035, -0.0338, -0.0981, 0.1108, 0.3797, 1, 200
0.0310, -0.2277, 1.8503, -0.0879, 0.8772, -0.0192, 0.9118, 656622, 0.0443, -0.3127, -0.1034, -0.0338, -0.0981, 0.1108, 0.3642, 1, 200
0.0470, -0.2277, 1.8503, -0.0879, 0.8772, -0.0192, 0.9118, 656622, 0.0443, -0.3127, -0.1034, -0.0339, -0.0981, 0.1108, 0.3642, 1, 200
0.0620, 0.0546, -1.5337, 0.1172, 0.8788, -0.0190, 0.9112, 656642, 0.0444, -0.3127, -0.1034, -0.0338, -0.0980, 0.1108, 0.3543, 70, 200
0.0940, -0.4096, -6.5182, -0.1266, 0.6920, -0.0161, 0.9119, 656682, 0.0443, -0.3127, -0.1034, -0.0337, -0.0982, 0.1107, 0.3302, 200, 165
0.1090, -0.4096, -6.5182, -0.1266, 0.6920, -0.0161, 0.9119, 656682, 0.0443, -0.3127, -0.1035, -0.0340, -0.0980, 0.1108, 0.3302, 200, 165
0.1250, -0.1728, -7.4170, 0.0508, 0.4054, -0.0169, 0.9137, 656722, 0.0443, -0.3127, -0.1034, -0.0338, -0.0980, 0.1108, 0.3010, 200, 1
0.1400, -0.1728, -7.4170, 0.0508, 0.4054, -0.0169, 0.9137, 656722, 0.0443, -0.3127, -0.1035, -0.0339, -0.0982, 0.1108, 0.3010, 200, 1
0.1720, -1.1085, -6.5706, -0.0900, 0.2594, -0.0180, 0.9139, 656742, 0.0443, -0.3126, -0.1034, -0.0338, -0.0981, 0.1108, 0.2846, 200, 1
0.1870, 0.5558, -3.7035, 0.1355, 0.0269, -0.0234, 0.9170, 656782, 0.0443, -0.3127, -0.1034, -0.0338, -0.0981, 0.1107, 0.2484, 200, 1
0.2030, 0.5558, -3.7035, 0.1355, 0.0269, -0.0234, 0.9170, 656782, 0.0443, -0.3127, -0.1035, -0.0338, -0.0982, 0.1108, 0.2484, 200, 1
0.2340, -0.3709, -0.3236, -0.0680, -0.0134, -0.0209, 0.9179, 656802, 0.0444, -0.3127, -0.1034, -0.0338, -0.0979, 0.1107, 0.2288, 200, 66
0.2500, 0.4217, 5.5517, 0.0269, 0.1025, -0.0211, 0.9180, 656842, 0.0443, -0.3127, -0.1035, -0.0339, -0.0981, 0.1108, 0.1870, 29, 200
0.2650, 0.4217, 5.5517, 0.0269, 0.1025, -0.0211, 0.9180, 656842, 0.0443, -0.3127, -0.1034, -0.0339, -0.0981, 0.1108, 0.1870, 29, 200
0.2810, -0.1994, 5.3372, 0.2427, 0.3440, -0.0209, 0.9173, 656882, 0.0444, -0.3127, -0.1034, -0.0338, -0.0979, 0.1107, 0.1422, 1, 200
0.3120, -0.2260, 2.6461, 0.1032, 0.4267, -0.0202, 0.9170, 656902, 0.0443, -0.3127, -0.1035, -0.0339, -0.0981, 0.1107, 0.1190, 1, 200
0.3280, -0.2260, 2.6461, 0.1032, 0.4267, -0.0202, 0.9170, 656902, 0.0443, -0.3126, -0.1034, -0.0338, -0.0982, 0.1108, 0.1190, 1, 200
0.3430, -0.1771, -4.2212, -0.2771, 0.3983, -0.0169, 0.9175, 656942, 0.0443, -0.3127, -0.1035, -0.0339, -0.0981, 0.1108, 0.0711, 154, 183
0.3750, 0.2164, -6.9762, 0.1134, 0.2724, -0.0166, 0.9180, 656962, 0.0443, -0.3127, -0.1034, -0.0338, -0.0982, 0.1107, 0.0468, 200, 55
0.3900, 0.2164, -6.9762, 0.1134, 0.2724, -0.0166, 0.9180, 656962, 0.0443, -0.3127, -0.1034, -0.0339, -0.0980, 0.1108, 0.0468, 200, 55
0.4060, 0.0766, -7.4020, 0.1548, 0.1278, -0.0180, 0.9200, 656982, 0.0444, -0.3127, -0.1035, -0.0339, -0.0981, 0.1108, 0.0222, 200, 1
0.4220, 0.0766, -7.4020, 0.1548, 0.1278, -0.0180, 0.9200, 656982, 0.0443, -0.3127, -0.1034, -0.0337, -0.0982, 0.1108, 0.0222, 200, 1
0.4530, 0.2820, -6.8593, -0.0672, -0.1593, -0.0171, 0.9219, 657022, 0.0443, -0.3127, -0.1035, -0.0339, -0.0980, 0.1108, -0.0271, 200, 1
0.4680, -0.3024, -3.3549, -0.1153, -0.2670, -0.0166, 0.9235, 657042, 0.0444, -0.3127, -0.1034, -0.0339, -0.0982, 0.1107, -0.0517, 200, 1
0.4840, -0.3024, -3.3549, -0.1153, -0.2670, -0.0166, 0.9235, 657042, 0.0444, -0.3127, -0.1035, -0.0339, -0.0980, 0.1108, -0.0517, 200, 1
0.5150, 0.2618, 3.3135, -0.0661, -0.2754, -0.0171, 0.9247, 657082, 0.0443, -0.3127, -0.1034, -0.0338, -0.0982, 0.1108, -0.1000, 160, 169
0.5310, 0.2484, 5.2141, 0.0266, -0.0646, -0.0152, 0.9257, 657122, 0.0443, -0.3127, -0.1034, -0.0339, -0.0982, 0.1108, -0.1469, 1, 200
0.5470, 0.2484, 5.2141, 0.0266, -0.0646, -0.0152, 0.9257, 657122, 0.0443, -0.3127, -0.1034, -0.0338, -0.0980, 0.1108, -0.1469, 1, 200
0.5620, 0.1906, 3.5455, 0.1000, 0.0204, -0.0159, 0.9259, 657142, 0.0443, -0.3127, -0.1034, -0.0338, -0.0983, 0.1107, -0.1695, 1, 200
0.5930, 0.0922, -2.6717, -0.2191, 0.0443, -0.0157, 0.9264, 657182, 0.0443, -0.3127, -0.1035, -0.0339, -0.0980, 0.1108, -0.2125, 128, 189
0.6090, 0.0922, -2.6717, -0.2191, 0.0443, -0.0157, 0.9264, 657182, 0.0443, -0.3127, -0.1034, -0.0339, -0.0981, 0.1108, -0.2125, 128, 189
0.6250, -0.3153, -5.3581, -0.0368, -0.0429, -0.0148, 0.9268, 657202, 0.0443, -0.3127, -0.1034, -0.0338, -0.0981, 0.1108, -0.2328, 200, 99
0.6400, -0.3153, -5.3581, -0.0368, -0.0429, -0.0148, 0.9268, 657202, 0.0443, -0.3127, -0.1034, -0.0338, -0.0981, 0.1108, -0.2328, 200, 99
0.6720, -0.4435, -4.5104, -0.0210, -0.2838, -0.0188, 0.9280, 657242, 0.0443, -0.3127, -0.1034, -0.0337, -0.0982, 0.1108, -0.2706, 200, 49
0.6870, 0.4080, 0.9566, -0.0344, -0.3653, -0.0168, 0.9285, 657282, 0.0443, -0.3127, -0.1035, -0.0338, -0.0981, 0.1108, -0.3041, 163, 171
0.7030, 0.4080, 0.9566, -0.0344, -0.3653, -0.0168, 0.9285, 657282, 0.0443, -0.3127, -0.1034, -0.0338, -0.0981, 0.1107, -0.3041, 163, 171
0.7340, 0.2177, 3.5982, 0.1365, -0.3068, -0.0182, 0.9289, 657302, 0.0443, -0.3127, -0.1035, -0.0339, -0.0981, 0.1109, -0.3191, 70, 200
0.7500, 0.0745, 3.3036, 0.0710, -0.1295, -0.0187, 0.9299, 657342, 0.0443, -0.3127, -0.1034, -0.0339, -0.0981, 0.1107, -0.3453, 1, 200
0.7650, 0.0745, 3.3036, 0.0710, -0.1295, -0.0187, 0.9299, 657342, 0.0443, -0.3127, -0.1034, -0.0338, -0.0981, 0.1108, -0.3453, 1, 200
0.7810, 0.0075, 1.1009, 0.0728, -0.0812, -0.0190, 0.9303, 657362, 0.0443, -0.3127, -0.1035, -0.0339, -0.0980, 0.1109, -0.3564, 1, 200
0.8120, -0.1000, -3.9844, -0.0489, -0.1319, -0.0176, 0.9299, 657402, 0.0443, -0.3127, -0.1034, -0.0338, -0.0980, 0.1108, -0.3742, 164, 159
0.8280, -0.1000, -3.9844, -0.0489, -0.1319, -0.0176, 0.9299, 657402, 0.0443, -0.3127, -0.1035, -0.0339, -0.0981, 0.1108, -0.3742, 164, 159
0.8430, 0.3973, -5.8742, -0.1820, -0.3391, -0.0204, 0.9313, 657442, 0.0443, -0.3127, -0.1034, -0.0339, -0.0981, 0.1108, -0.3862, 200, 1
0.8750, 0.5311, -3.5320, 0.0489, -0.4187, -0.0208, 0.9324, 657462, 0.0443, -0.3127, -0.1035, -0.0338, -0.0980, 0.1108, -0.3899, 200, 94
0.8900, 0.5311, -3.5320, 0.0489, -0.4187, -0.0208, 0.9324, 657462, 0.0443, -0.3127, -0.1034, -0.0338, -0.0982, 0.1108, -0.3899, 200, 94
0.9060, -0.0134, 2.4080, -0.1804, -0.4225, -0.0190, 0.9334, 657502, 0.0443, -0.3127, -0.1034, -0.0338, -0.0980, 0.1109, -0.3927, 138, 197
0.9210, -0.0134, 2.4080, -0.1804, -0.4225, -0.0190, 0.9334, 657502, 0.0443, -0.3128, -0.1035, -0.0339, -0.0982, 0.1108, -0.3927, 138, 197
0.9530, 0.3180, 2.8811, -0.1132, -0.3625, -0.0201, 0.9338, 657522, 0.0444, -0.3127, -0.1034, -0.0339, -0.0981, 0.1108, -0.3918, 83, 200
0.9680, -0.3303, 0.2094, -0.0116, -0.2866, -0.0208, 0.9334, 657562, 0.0443, -0.3127, -0.1035, -0.0338, -0.0981, 0.1108, -0.3853, 124, 198
0.9840, -0.3303, 0.2094, -0.0116, -0.2866, -0.0208, 0.9334, 657562, 0.0443, -0.3127, -0.1035, -0.0339, -0.0982, 0.1108, -0.3853, 124, 198
1.0150, 0.1325, -2.7840, -0.0935, -0.3599, -0.0206, 0.9344, 657602, 0.0443, -0.3127, -0.1034, -0.0338, -0.0980, 0.1109, -0.3727, 200, 110
1.0310, 0.3685, -2.3991, -0.1691, -0.4164, -0.0202, 0.9346, 657622, 0.0443, -0.3128, -0.1035, -0.0339, -0.0981, 0.1108, -0.3642, 200, 90
1.0460, 0.3685, -2.3991, -0.1691, -0.4164, -0.0202, 0.9346, 657622, 0.0443, -0.3126, -0.1034, -0.0338, -0.0982, 0.1107, -0.3642, 200, 90
1.0620, 0.3454, 0.9622, 0.1097, -0.4409, -0.0218, 0.9343, 657662, 0.0443, -0.3127, -0.1035, -0.0339, -0.0979, 0.1108, -0.3429, 179, 162
1.0930, -0.0618, 2.3198, 0.1089, -0.3948, -0.0230, 0.9336, 657682, 0.0443, -0.3128, -0.1035, -0.0338, -0.0982, 0.1107, -0.3302, 133, 199
1.1090, -0.0618, 2.3198, 0.1089, -0.3948, -0.0230, 0.9336, 657682, 0.0443, -0.3126, -0.1034, -0.0337, -0.0981, 0.1109, -0.3302, 133, 199
1.1250, -0.5147, 2.5429, 0.2432, -0.3356, -0.0241, 0.9334, 657702, 0.0443, -0.3127, -0.1035, -0.0340, -0.0981, 0.1107, -0.3162, 117, 200
1.1400, -0.5147, 2.5429, 0.2432, -0.3356, -0.0241, 0.9334, 657702, 0.0443, -0.3127, -0.1034, -0.0338, -0.0981, 0.1108, -0.3162, 117, 200
1.1710, -0.1989, 0.0344, -0.3147, -0.2897, -0.0213, 0.9324, 657742, 0.0443, -0.3127, -0.1035, -0.0339, -0.0981, 0.1108, -0.2846, 170, 159
1.1870, -0.2580, -1.2764, 0.0239, -0.3089, -0.0230, 0.9320, 657762, 0.0443, -0.3127, -0.1035, -0.0339, -0.0982, 0.1107, -0.2670, 195, 130
1.2030, -0.2580, -1.2764, 0.0239, -0.3089, -0.0230, 0.9320, 657762, 0.0444, -0.3127, -0.1034, -0.0339, -0.0980, 0.1108, -0.2670, 195, 130
1.2340, -0.2610, 0.8961, 0.1618, -0.3266, -0.0225, 0.9324, 657802, 0.0444, -0.3127, -0.1034, -0.0339, -0.0979, 0.1107, -0.2288, 175, 156
1.2500, -0.1212, 1.9143, 0.1833, -0.2522, -0.0248, 0.9313, 657842, 0.0443, -0.3127, -0.1034, -0.0338, -0.0982, 0.1108, -0.1870, 130, 193
1.2650, -0.1212, 1.9143, 0.1833, -0.2522, -0.0248, 0.9313, 657842, 0.0444, -0.3127, -0.1034, -0.0339, -0.0981, 0.1108, -0.1870, 130, 193
1.2810, 0.2583, 0.9507, 0.1250, -0.2203, -0.0234, 0.9308, 657862, 0.0443, -0.3127, -0.1034, -0.0339, -0.0981, 0.1108, -0.1650, 163, 163
1.3120, 0.1387, 0.0659, -0.1615, -0.2091, -0.0241, 0.9289, 657902, 0.0443, -0.3127, -0.1035, -0.0339, -0.0981, 0.1107, -0.1190, 183, 140
1.3280, 0.1387, 0.0659, -0.1615, -0.2091, -0.0241, 0.9289, 657902, 0.0444, -0.3127, -0.1034, -0.0339, -0.0980, 0.1108, -0.1190, 183, 140
1.3430, -0.4765, 1.0254, 0.0339, -0.2035, -0.0253, 0.9285, 657922, 0.0444, -0.3127, -0.1035, -0.0339, -0.0980, 0.1107, -0.0953, 172, 153
1.3740, -0.4373, 2.4494, 0.1040, -0.1325, -0.0255, 0.9275, 657962, 0.0443, -0.3127, -0.1034, -0.0338, -0.0982, 0.1108, -0.0468, 136, 184
1.3900, -0.4373, 2.4494, 0.1040, -0.1325, -0.0255, 0.9275, 657962, 0.0443, -0.3127, -0.1034, -0.0339, -0.0980, 0.1109, -0.0468, 136, 184
1.4060, -0.1521, 0.4306, -0.1884, -0.0834, -0.0258, 0.9261, 658002, 0.0443, -0.3127, -0.1034, -0.0339, -0.0981, 0.1107, 0.0025, 176, 145
1.4210, -0.1521, 0.4306, -0.1884, -0.0834, -0.0258, 0.9261, 658002, 0.0443, -0.3127, -0.1034, -0.0338, -0.0981, 0.1108, 0.0025, 176, 145
1.4530, 0.3443, 0.7045, -0.1685, -0.0730, -0.0257, 0.9250, 658022, 0.0443, -0.3127, -0.1034, -0.0338, -0.0980, 0.1108, 0.0271, 175, 146
1.4680, -0.6513, 1.8777, 0.2537, -0.0211, -0.0304, 0.9240, 658062, 0.0443, -0.3127, -0.1034, -0.0338, -0.0982, 0.1108, 0.0760, 148, 172
1.4840, -0.6513, 1.8777, 0.2537, -0.0211, -0.0304, 0.9240, 658062, 0.0443, -0.3127, -0.1034, -0.0338, -0.0979, 0.1109, 0.0760, 148, 172
1.5150, 0.0145, 0.9988, 0.2196, 0.0127, -0.0298, 0.9245, 658082, 0.0443, -0.3127, -0.1034, -0.0339, -0.0982, 0.1107, 0.1000, 166, 156
1.5310, 0.0621, 1.2181, -0.1962, 0.0351, -0.0290, 0.9233, 658102, 0.0444, -0.3127, -0.1034, -0.0338, -0.0979, 0.1108, 0.1237, 173, 148
1.5460, 0.0621, 1.2181, -0.1962, 0.0351, -0.0290, 0.9233, 658102, 0.0443, -0.3127, -0.1035, -0.0339, -0.0981, 0.1107, 0.1237, 173, 148
1.5620, -0.1529, 1.0956, 0.2701, 0.0738, -0.0298, 0.9214, 658142, 0.0443, -0.3127, -0.1034, -0.0338, -0.0982, 0.1107, 0.1695, 166, 156
1.5930, -0.1169, 1.6250, -0.3166, 0.1267, -0.0288, 0.9201, 658182, 0.0443, -0.3127, -0.1035, -0.0339, -0.0980, 0.1109, 0.2125, 154, 169
1.6090, -0.1169, 1.6250, -0.3166, 0.1267, -0.0288, 0.9201, 658182, 0.0443, -0.3127, -0.1035, -0.0339, -0.0984, 0.1107, 0.2125, 154, 169
1.6240, 0.4282, 0.5126, 0.1701, 0.1670, -0.0269, 0.9180, 658222, 0.0444, -0.3127, -0.1034, -0.0338, -0.0981, 0.1109, 0.2522, 173, 150
1.6560, 0.4282, 0.5126, 0.1701, 0.1670, -0.0269, 0.9180, 658222, 0.0443, -0.3127, -0.1034, -0.0338, -0.0980, 0.1107, 0.2522, 173, 150
1.6710, -0.4757, 1.1364, -0.0452, 0.1852, -0.0267, 0.9172, 658242, 0.0443, -0.3127, -0.1034, -0.0338, -0.0982, 0.1108, 0.2706, 170, 155
1.6870, 0.2887, 1.2888, 0.0484, 0.2349, -0.0251, 0.9154, 658282, 0.0443, -0.3127, -0.1034, -0.0338, -0.0980, 0.1109, 0.3041, 155, 171
1.7030, 0.2887, 1.2888, 0.0484, 0.2349, -0.0251, 0.9154, 658282, 0.0443, -0.3127, -0.1035, -0.0338, -0.0981, 0.1107, 0.3041, 155, 171
1.7340, -0.3354, 0.5249, 0.0570, 0.2532, -0.0248, 0.9147, 658302, 0.0444, -0.3127, -0.1035, -0.0339, -0.0981, 0.1109, 0.3191, 172, 156
1.7490, 0.2924, 0.8133, 0.0008, 0.2791, -0.0260, 0.9128, 658342, 0.0443, -0.3127, -0.1035, -0.0338, -0.0981, 0.1108, 0.3453, 166, 163
1.7650, 0.2924, 0.8133, 0.0008, 0.2791, -0.0260, 0.9128, 658342, 0.0443, -0.3127, -0.1034, -0.0338, -0.0982, 0.1107, 0.3453, 166, 163
1.7810, -0.1360, 0.8230, 0.1914, 0.2944, -0.0251, 0.9126, 658362, 0.0443, -0.3127, -0.1034, -0.0338, -0.0981, 0.1108, 0.3564, 165, 165
1.8120, 0.1500, 0.8862, -0.2217, 0.3353, -0.0236, 0.9112, 658402, 0.0443, -0.3127, -0.1035, -0.0339, -0.0981, 0.1107, 0.3742, 158, 174
1.8270, 0.1500, 0.8862, -0.2217, 0.3353, -0.0236, 0.9112, 658402, 0.0444, -0.3127, -0.1034, -0.0338, -0.0980, 0.1108, 0.3742, 158, 174
1.8430, 0.1489, -0.0997, 0.2131, 0.3416, -0.0232, 0.9107, 658422, 0.0444, -0.3127, -0.1034, -0.0338, -0.0980, 0.1108, 0.3810, 177, 155
1.8740, 0.1019, 0.6639, -0.1908, 0.3517, -0.0220, 0.9095, 658462, 0.0444, -0.3127, -0.1035, -0.0339, -0.0980, 0.1108, 0.3899, 163, 170
1.8900, 0.1019, 0.6639, -0.1908, 0.3517, -0.0220, 0.9095, 658462, 0.0443, -0.3127, -0.1034, -0.0338, -0.0980, 0.1108, 0.3899, 163, 170
1.9060, 0.0965, 0.4142, 0.2357, 0.3629, -0.0209, 0.9091, 658482, 0.0443, -0.3127, -0.1034, -0.0338, -0.0981, 0.1106, 0.3921, 157, 176
1.9210, 0.0965, 0.4142, 0.2357, 0.3629, -0.0209, 0.9091, 658482, 0.0443, -0.3127, -0.1034, -0.0339, -0.0980, 0.1108, 0.3921, 157, 176
1.9520, -0.1459, 0.5026, -0.2642, 0.3822, -0.0197, 0.9079, 658522, 0.0444, -0.3127, -0.1034, -0.0338, -0.0981, 0.1107, 0.3918, 159, 176
1.9680, -0.1699, 0.4016, -0.1395, 0.3828, -0.0175, 0.9084, 658562, 0.0443, -0.3127, -0.1035, -0.0339, -0.0981, 0.1109, 0.3853, 161, 175
1.9840, -0.1699, 0.4016, -0.1395, 0.3828, -0.0175, 0.9084, 658562, 0.0443, -0.3127, -0.1034, -0.0338, -0.0982, 0.1109, 0.3853, 161, 175
2.0150, -0.2053, 0.2768, -0.0441, 0.3819, -0.0171, 0.9076, 658582, 0.0443, -0.3127, -0.1034, -0.0338, -0.0981, 0.1108, 0.3797, 160, 176
2.0310, -0.3107, 0.1443, -0.2094, 0.3735, -0.0138, 0.9077, 658622, 0.0444, -0.3127, -0.1035, -0.0339, -0.0982, 0.1108, 0.3642, 167, 169
2.0460, -0.3107, 0.1443, -0.2094, 0.3735, -0.0138, 0.9077, 658622, 0.0443, -0.3127, -0.1034, -0.0337, -0.0981, 0.1107, 0.3642, 167, 169
2.0620, 0.0648, -0.4653, 0.1812, 0.3691, -0.0148, 0.9069, 658642, 0.0443, -0.3127, -0.1035, -0.0339, -0.0979, 0.1108, 0.3543, 172, 163
2.0930, -0.5136, 0.4319, -0.2983, 0.3587, -0.0143, 0.9063, 658682, 0.0443, -0.3127, -0.1034, -0.0339, -0.0983, 0.1107, 0.3302, 153, 180
2.1090, -0.5136, 0.4319, -0.2983, 0.3587, -0.0143, 0.9063, 658682, 0.0444, -0.3127, -0.1035, -0.0338, -0.0980, 0.1108, 0.3302, 153, 180
2.1240, -0.1973, -0.8733, 0.0296, 0.3362, -0.0110, 0.9070, 658722, 0.0443, -0.3127, -0.1034, -0.0339, -0.0982, 0.1107, 0.3010, 180, 152
2.1400, -0.1973, -0.8733, 0.0296, 0.3362, -0.0110, 0.9070, 658722, 0.0443, -0.3127, -0.1034, -0.0339, -0.0981, 0.1108, 0.3010, 180, 152
2.1710, -0.6241, -0.5550, -0.2293, 0.3213, -0.0113, 0.9063, 658742, 0.0443, -0.3127, -0.1035, -0.0339, -0.0980, 0.1108, 0.2846, 159, 172
2.1870, -0.4266, 0.0038, -0.2078, 0.2971, -0.0082, 0.9060, 658782, 0.0443, -0.3127, -0.1034, -0.0339, -0.0983, 0.1108, 0.2484, 159, 171
2.2020, -0.4266, 0.0038, -0.2078, 0.2971, -0.0082, 0.9060, 658782, 0.0444, -0.3127, -0.1035, -0.0339, -0.0980, 0.1108, 0.2484, 159, 171
2.2340, 0.1556, -0.8045, -0.0656, 0.2833, -0.0080, 0.9051, 658802, 0.0443, -0.3127, -0.1034, -0.0339, -0.0981, 0.1108, 0.2288, 165, 164
2.2490, -0.5814, -0.4696, -0.2548, 0.2423, -0.0065, 0.9051, 658842, 0.0443, -0.3127, -0.1034, -0.0338, -0.0981, 0.1108, 0.1870, 164, 163
2.2650, -0.5814, -0.4696, -0.2548, 0.2423, -0.0065, 0.9051, 658842, 0.0443, -0.3127, -0.1034, -0.0338, -0.0980, 0.1109, 0.1870, 164, 163
2.2800, -0.0986, -0.8993, 0.1056, 0.2051, -0.0086, 0.9044, 658882, 0.0443, -0.3127, -0.1035, -0.0339, -0.0982, 0.1108, 0.1422, 166, 160
2.3120, -0.4306, -0.9509, -0.1169, 0.1831, -0.0108, 0.9039, 658902, 0.0444, -0.3127, -0.1035, -0.0338, -0.0980, 0.1109, 0.1190, 167, 158
2.3270, -0.4306, -0.9509, -0.1169, 0.1831, -0.0108, 0.9039, 658902, 0.0443, -0.3127, -0.1034, -0.0338, -0.0982, 0.1107, 0.1190, 167, 158
2.3430, -0.2441, -1.0507, 0.0769, 0.1354, -0.0124, 0.9034, 658942, 0.0443, -0.3127, -0.1035, -0.0340, -0.0981, 0.1108, 0.0711, 165, 158
2.3740, -0.2626, -1.3133, -0.0185, 0.1150, -0.0136, 0.9034, 658962, 0.0444, -0.3127, -0.1034, -0.0339, -0.0980, 0.1108, 0.0468, 168, 155
2.3900, -0.2626, -1.3133, -0.0185, 0.1150, -0.0136, 0.9034, 658962, 0.0443, -0.3127, -0.1035, -0.0338, -0.0982, 0.1108, 0.0468, 168, 155
2.4050, -0.0430, -1.4356, 0.1003, 0.0691, -0.0133, 0.9022, 659002, 0.0443, -0.3127, -0.1034, -0.0339, -0.0980, 0.1108, -0.0025, 167, 154
2.4210, -0.0430, -1.4356, 0.1003, 0.0691, -0.0133, 0.9022, 659002, 0.0443, -0.3127, -0.1034, -0.0339, -0.0981, 0.1107, -0.0025, 167, 154
2.4520, 0.1156, -0.4263, -0.2462, 0.0208, -0.0115, 0.9022, 659042, 0.0443, -0.3127, -0.1035, -0.0339, -0.0981, 0.1107, -0.0517, 153, 168
2.4680, 0.1156, -0.4263, -0.2462, 0.0208, -0.0115, 0.9022, 659042, 0.0444, -0.3126, -0.1034, -0.0338, -0.0981, 0.1108, -0.0517, 153, 168
2.4840, 0.0618, -0.5687, -0.1142, 0.0105, -0.0115, 0.9016, 659062, 0.0443, -0.3127, -0.1035, -0.0339, -0.0982, 0.1108, -0.0760, 147, 173
2.5150, 0.0785, -1.9989, -0.0529, -0.0440, -0.0115, 0.9022, 659102, 0.0443, -0.3127, -0.1034, -0.0338, -0.0982, 0.1108, -0.1237, 180, 139
2.5300, 0.0785, -1.9989, -0.0529, -0.0440, -0.0115, 0.9022, 659102, 0.0443, -0.3126, -0.1034, -0.0337, -0.0981, 0.1107, -0.1237, 180, 139
2.5460, 0.1234, -1.2622, -0.1890, -0.0787, -0.0115, 0.9023, 659122, 0.0443, -0.3127, -0.1035, -0.0339, -0.0981, 0.1107, -0.1469, 169, 153
2.5620, 0.1234, -1.2622, -0.1890, -0.0787, -0.0115, 0.9023, 659122, 0.0443, -0.3127, -0.1034, -0.0338, -0.0981, 0.1108, -0.1469, 169, 153
2.5930, 0.0067, -0.5835, 0.0935, -0.1136, -0.0129, 0.9027, 659162, 0.0444, -0.3127, -0.1035, -0.0339, -0.0981, 0.1108, -0.1913, 150, 172
2.6090, -0.4548, -0.9480, -0.2043, -0.1606, -0.0134, 0.9034, 659202, 0.0443, -0.3127, -0.1034, -0.0338, -0.0981, 0.1107, -0.2328, 169, 155
2.6240, -0.4548, -0.9480, -0.2043, -0.1606, -0.0134, 0.9034, 659202, 0.0444, -0.3127, -0.1034, -0.0339, -0.0979, 0.1108, -0.2328, 169, 155
2.6550, -0.1997, -1.1090, -0.2408, -0.1887, -0.0147, 0.9025, 659222, 0.0443, -0.3127, -0.1035, -0.0339, -0.0980, 0.1108, -0.2522, 166, 159
2.6710, -0.4521, -0.7572, 0.1562, -0.2262, -0.0140, 0.9025, 659262, 0.0444, -0.3127, -0.1034, -0.0339, -0.0981, 0.1108, -0.2880, 158, 168
2.6870, -0.4521, -0.7572, 0.1562, -0.2262, -0.0140, 0.9025, 659262, 0.0443, -0.3128, -0.1035, -0.0338, -0.0981, 0.1109, -0.2880, 158, 168
2.7020, -0.1836, -0.9507, 0.1234, -0.2436, -0.0140, 0.9027, 659282, 0.0443, -0.3127, -0.1034, -0.0339, -0.0981, 0.1108, -0.3041, 168, 159
2.7340, -0.1906, -0.9628, -0.0363, -0.2883, -0.0138, 0.9027, 659322, 0.0443, -0.3127, -0.1034, -0.0338, -0.0981, 0.1109, -0.3329, 168, 162
2.7490, -0.1906, -0.9628, -0.0363, -0.2883, -0.0138, 0.9027, 659322, 0.0444, -0.3127, -0.1035, -0.0338, -0.0981, 0.1109, -0.3329, 168, 162
2.7650, 0.0145, -0.6023, 0.0446, -0.3171, -0.0122, 0.9037, 659362, 0.0443, -0.3127, -0.1034, -0.0339, -0.0981, 0.1108, -0.3564, 166, 165
2.7960, 0.0145, -0.6023, 0.0446, -0.3171, -0.0122, 0.9037, 659362, 0.0443, -0.3127, -0.1035, -0.0339, -0.0980, 0.1109, -0.3564, 166, 165
2.8120, -0.2126, -0.1089, -0.3298, -0.3267, -0.0124, 0.9022, 659382, 0.0443, -0.3127, -0.1035, -0.0339, -0.0981, 0.1108, -0.3660, 157, 174
2.8270, -0.3392, -0.6177, -0.1785, -0.3587, -0.0115, 0.9025, 659422, 0.0443, -0.3127, -0.1034, -0.0338, -0.0980, 0.1109, -0.3810, 181, 152
2.8430, -0.3392, -0.6177, -0.1785, -0.3587, -0.0115, 0.9025, 659422, 0.0444, -0.3128, -0.1035, -0.0339, -0.0982, 0.1108, -0.3810, 181, 152
2.8740, 0.2121, -0.3139, -0.1035, -0.3688, -0.0119, 0.9023, 659442, 0.0443, -0.3127, -0.1034, -0.0338, -0.0982, 0.1108, -0.3862, 166, 169
2.8900, -0.2336, -0.1683, 0.1180, -0.3777, -0.0115, 0.9029, 659482, 0.0444, -0.3127, -0.1034, -0.0339, -0.0979, 0.1108, -0.3921, 172, 164
2.9050, -0.2336, -0.1683, 0.1180, -0.3777, -0.0115, 0.9029, 659482, 0.0443, -0.3127, -0.1034, -0.0338, -0.0981, 0.1108, -0.3921, 172, 164
2.9210, -0.0594, -0.5362, 0.0497, -0.3880, -0.0115, 0.9022, 659522, 0.0444, -0.3127, -0.1035, -0.0338, -0.0981, 0.1108, -0.3918, 173, 163
2.9520, 0.0099, -0.7416, 0.2650, -0.3965, -0.0120, 0.9027, 659542, 0.0444, -0.3127, -0.1034, -0.0338, -0.0982, 0.1107, -0.3893, 186, 149
2.9680, 0.0099, -0.7416, 0.2650, -0.3965, -0.0120, 0.9027, 659542, 0.0443, -0.3127, -0.1034, -0.0338, -0.0981, 0.1108, -0.3893, 186, 149
2.9830, -0.0481, 0.1148, 0.0215, -0.4002, -0.0119, 0.9025, 659582, 0.0443, -0.3127, -0.1034, -0.0338, -0.0979, 0.1108, -0.3797, 166, 172
3.0150, 0.1277, -0.1750, 0.3131, -0.3964, -0.0126, 0.9034, 659602, 0.0444, -0.3127, -0.1035, -0.0338, -0.0981, 0.1107, -0.3727, 171, 166
3.0300, 0.1277, -0.1750, 0.3131, -0.3964, -0.0126, 0.9034, 659602, 0.0443, -0.3127, -0.1035, -0.0338, -0.0982, 0.1108, -0.3727, 171, 166
3.0460, 0.3083, 0.3591, 0.0809, -0.3829, -0.0138, 0.9032, 659642, 0.0444, -0.3127, -0.1034, -0.0338, -0.0980, 0.1108, -0.3543, 169, 167
3.0620, 0.3083, 0.3591, 0.0809, -0.3829, -0.0138, 0.9032, 659642, 0.0443, -0.3127, -0.1035, -0.0338, -0.0982, 0.1108, -0.3543, 169, 167
3.0930, -0.0011, 0.3317, -0.1091, -0.3744, -0.0143, 0.9032, 659682, 0.0443, -0.3127, -0.1034, -0.0339, -0.0981, 0.1108, -0.3302, 173, 162
3.1080, 0.2139, 0.3806, -0.0761, -0.3700, -0.0141, 0.9030, 659702, 0.0444, -0.3127, -0.1034, -0.0338, -0.0980, 0.1108, -0.3162, 172, 163
3.1240, 0.2139, 0.3806, -0.0761, -0.3700, -0.0141, 0.9030, 659702, 0.0444, -0.3127, -0.1035, -0.0339, -0.0981, 0.1108, -0.3162, 172, 163
3.1550, 0.0078, 0.2379, 0.2110, -0.3632, -0.0138, 0.9036, 659722, 0.0443, -0.3127, -0.1034, -0.0338, -0.0981, 0.1108, -0.3010, 179, 155
3.1710, -0.0664, 1.2522, -0.3123, -0.3327, -0.0143, 0.9030, 659762, 0.0443, -0.3127, -0.1035, -0.0339, -0.0981, 0.1107, -0.2670, 160, 172
3.1870, -0.0664, 1.2522, -0.3123, -0.3327, -0.0143, 0.9030, 659762, 0.0443, -0.3126, -0.1034, -0.0339, -0.0981, 0.1108, -0.2670, 160, 172
3.2020, 0.5123, 0.2707, 0.3250, -0.3126, -0.0136, 0.9030, 659782, 0.0444, -0.3127, -0.1035, -0.0338, -0.0981, 0.1108, -0.2484, 172, 159
3.2330, 0.0790, 0.8117, -0.1196, -0.2848, -0.0141, 0.9027, 659822, 0.0443, -0.3128, -0.1035, -0.0338, -0.0982, 0.1108, -0.2083, 167, 162
3.2490, 0.0790, 0.8117, -0.1196, -0.2848, -0.0141, 0.9027, 659822, 0.0443, -0.3127, -0.1034, -0.0338, -0.0980, 0.1108, -0.2083, 167, 162
3.2650, 0.2830, 0.6322, 0.2059, -0.2702, -0.0133, 0.9029, 659842, 0.0443, -0.3127, -0.1035, -0.0338, -0.0981, 0.1107, -0.1870, 172, 156
3.2960, 0.2830, 0.6322, 0.2059, -0.2702, -0.0133, 0.9029, 659842, 0.0444, -0.3126, -0.1034, -0.0339, -0.0980, 0.1108, -0.1870, 172, 156
3.3120, 0.2295, 1.2168, -0.1177, -0.2276, -0.0124, 0.9022, 659882, 0.0443, -0.3127, -0.1035, -0.0338, -0.0982, 0.1108, -0.1422, 167, 159
3.3270, -0.0511, 0.9050, 0.2051, -0.1840, -0.0138, 0.9020, 659922, 0.0443, -0.3128, -0.1035, -0.0339, -0.0981, 0.1108, -0.0953, 172, 152
3.3430, -0.0511, 0.9050, 0.2051, -0.1840, -0.0138, 0.9020, 659922, 0.0443, -0.3126, -0.1034, -0.0339, -0.0980, 0.1107, -0.0953, 172, 152
3.3740, 0.0758, 1.4267, -0.1650, -0.1604, -0.0131, 0.9016, 659942, 0.0443, -0.3127, -0.1035, -0.0338, -0.0981, 0.1107, -0.0711, 159, 165
3.3900, 0.1481, 0.4290, 0.3470, -0.1190, -0.0136, 0.9006, 659982, 0.0443, -0.3126, -0.1034, -0.0338, -0.0982, 0.1108, -0.0222, 176, 146
3.4050, 0.1481, 0.4290, 0.3470, -0.1190, -0.0136, 0.9006, 659982, 0.0444, -0.3127, -0.1034, -0.0338, -0.0979, 0.1108, -0.0222, 176, 146
3.4210, -0.3411, 1.5691, -0.1978, -0.0953, -0.0140, 0.9008, 660002, 0.0443, -0.3127, -0.1034, -0.0338, -0.0982, 0.1106, 0.0025, 164, 159
3.4520, 0.3126, 1.1036, 0.1511, -0.0405, -0.0141, 0.8999, 660042, 0.0443, -0.3127, -0.1034, -0.0338, -0.0981, 0.1109, 0.0517, 162, 159
3.4680, 0.3126, 1.1036, 0.1511, -0.0405, -0.0141, 0.8999, 660042, 0.0443, -0.3127, -0.1035, -0.0338, -0.0982, 0.1107, 0.0517, 162, 159
3.4830, 0.2392, 0.9810, -0.0723, 0.0014, -0.0148, 0.8994, 660082, 0.0444, -0.3127, -0.1034, -0.0338, -0.0982, 0.1108, 0.1000, 168, 154
3.5150, 0.1037, 1.3711, -0.0521, 0.0241, -0.0143, 0.8983, 660102, 0.0443, -0.3127, -0.1034, -0.0338, -0.0981, 0.1108, 0.1237, 157, 165
3.5300, 0.1037, 1.3711, -0.0521, 0.0241, -0.0143, 0.8983, 660102, 0.0443, -0.3127, -0.1034, -0.0339, -0.0982, 0.1107, 0.1237, 157, 165
3.5460, 0.0917, 1.3353, -0.0938, 0.0815, -0.0134, 0.8980, 660142, 0.0443, -0.3127, -0.1034, -0.0339, -0.0981, 0.1109, 0.1695, 165, 157
3.5610, 0.0917, 1.3353, -0.0938, 0.0815, -0.0134, 0.8980, 660142, 0.0444, -0.3127, -0.1034, -0.0338, -0.0980, 0.1108, 0.1695, 165, 157
3.5930, -0.1833, 1.1399, -0.2277, 0.1059, -0.0140, 0.8973, 660162, 0.0444, -0.3127, -0.1034, -0.0338, -0.0981, 0.1107, 0.1913, 162, 161
3.6080, -0.0032, 1.0423, 0.0871, 0.1395, -0.0138, 0.8976, 660202, 0.0443, -0.3127, -0.1035, -0.0338, -0.0982, 0.1108, 0.2328, 175, 147
3.6240, -0.0032, 1.0423, 0.0871, 0.1395, -0.0138, 0.8976, 660202, 0.0443, -0.3127, -0.1034, -0.0339, -0.0981, 0.1108, 0.2328, 175, 147
3.6550, 0.1924, 1.1869, 0.1734, 0.1873, -0.0131, 0.8964, 660242, 0.0443, -0.3127, -0.1035, -0.0338, -0.0981, 0.1108, 0.2706, 159, 165
3.6710, -0.1140, 0.9797, 0.0718, 0.2121, -0.0119, 0.8961, 660262, 0.0443, -0.3127, -0.1034, -0.0339, -0.0981, 0.1109, 0.2880, 166, 160
3.6860, -0.1140, 0.9797, 0.0718, 0.2121, -0.0119, 0.8961, 660262, 0.0444, -0.3127, -0.1035, -0.0339, -0.0980, 0.1108, 0.2880, 166, 160
3.7020, 0.3204, 0.8399, 0.0567, 0.2524, -0.0098, 0.8954, 660302, 0.0443, -0.3127, -0.1034, -0.0338, -0.0981, 0.1108, 0.3191, 166, 161
3.7330, -0.0726, 0.4669, 0.0938, 0.2667, -0.0093, 0.8957, 660322, 0.0443, -0.3127, -0.1034, -0.0339, -0.0980, 0.1107, 0.3329, 173, 155
3.7490, -0.0726, 0.4669, 0.0938, 0.2667, -0.0093, 0.8957, 660322, 0.0443, -0.3127, -0.1035, -0.0339, -0.0981, 0.1108, 0.3329, 173, 155
3.7650, 0.1903, 1.1141, -0.1610, 0.2967, -0.0082, 0.8954, 660362, 0.0444, -0.3127, -0.1034, -0.0339, -0.0982, 0.1107, 0.3564, 160, 170
3.7960, 0.0890, 1.0821, -0.0296, 0.3297, -0.0086, 0.8952, 660402, 0.0443, -0.3128, -0.1035, -0.0339, -0.0981, 0.1108, 0.3742, 162, 170
3.8110, 0.0890, 1.0821, -0.0296, 0.3297, -0.0086, 0.8952, 660402, 0.0443, -0.3127, -0.1034, -0.0339, -0.0982, 0.1107, 0.3742, 162, 170
3.8270, 0.0890, 1.0821, -0.0296, 0.3297, -0.0086, 0.8952, 660402, 0.0443, -0.3127, -0.1034, -0.0338, -0.0979, 0.1108, 0.3742, 162, 170
3.8430, 0.0890, 1.0821, -0.0296, 0.3297, -0.0086, 0.8952, 660402, 0.0443, -0.3127, -0.1035, -0.0339, -0.0982, 0.1108, 0.3742, 162, 170
3.8740, 0.2338, 0.0943, 0.1809, 0.3608, -0.0080, 0.8952, 660442, 0.0444, -0.3127, -0.1034, -0.0338, -0.0980, 0.1107, 0.3862, 168, 166
3.8900, -0.0812, 0.7658, -0.1586, 0.3691, -0.0084, 0.8954, 660462, 0.0444, -0.3127, -0.1035, -0.0339, -0.0980, 0.1108, 0.3899, 165, 169
3.9050, -0.0812, 0.7658, -0.1586, 0.3691, -0.0084, 0.8954, 660462, 0.0443, -0.3127, -0.1034, -0.0339, -0.0982, 0.1107, 0.3899, 165, 169
3.9360, 0.2876, -0.1844, 0.2629, 0.3808, -0.0077, 0.8955, 660502, 0.0443, -0.3126, -0.1034, -0.0338, -0.0980, 0.1108, 0.3927, 174, 161
3.9520, -0.0650, 0.1204, -0.0194, 0.3925, -0.0086, 0.8950, 660542, 0.0443, -0.3128, -0.1035, -0.0338, -0.0983, 0.1107, 0.3893, 159, 177
3.9680, -0.0650, 0.1204, -0.0194, 0.3925, -0.0086, 0.8950, 660542, 0.0444, -0.3127, -0.1034, -0.0339, -0.0980, 0.1108, 0.3893, 159, 177
3.9830, 0.3080, -0.2924, 0.1220, 0.3946, -0.0077, 0.8962, 660562, 0.0443, -0.3127, -0.1035, -0.0339, -0.0981, 0.1109, 0.3853, 174, 162
4.0140, 0.1994, -0.3045, 0.1876, 0.3941, -0.0073, 0.8955, 660602, 0.0443, -0.3127, -0.1035, -0.0339, -0.0981, 0.1107, 0.3727, 161, 175
4.0300, 0.1994, -0.3045, 0.1876, 0.3941, -0.0073, 0.8955, 660602, 0.0444, -0.3127, -0.1034, -0.0338, -0.0979, 0.1107, 0.3727, 161, 175
4.0460, 0.0535, -0.4190, 0.0293, 0.3890, -0.0068, 0.8962, 660622, 0.0443, -0.3127, -0.1035, -0.0339, -0.0983, 0.1107, 0.3642, 173, 163
4.0610, 0.0535, -0.4190, 0.0293, 0.3890, -0.0068, 0.8962, 660622, 0.0444, -0.3127, -0.1034, -0.0338, -0.0981, 0.1108, 0.3642, 173, 163
4.0930, 0.3505, -0.6878, 0.3029, 0.3737, -0.0072, 0.8957, 660662, 0.0443, -0.3127, -0.1034, -0.0338, -0.0979, 0.1107, 0.3429, 172, 163
4.1080, -0.1653, 0.0075, -0.1000, 0.3587, -0.0070, 0.8947, 660702, 0.0443, -0.3127, -0.1034, -0.0338, -0.0982, 0.1107, 0.3162, 155, 178
4.1240, -0.1653, 0.0075, -0.1000, 0.3587, -0.0070, 0.8947, 660702, 0.0443, -0.3127, -0.1034, -0.0338, -0.0981, 0.1109, 0.3162, 155, 178
4.1550, 0.5206, -1.0230, 0.2707, 0.3480, -0.0044, 0.8948, 660722, 0.0443, -0.3127, -0.1034, -0.0338, -0.0982, 0.1107, 0.3010, 168, 166
4.1710, 0.1357, -0.5690, 0.0030, 0.3239, -0.0063, 0.8948, 660762, 0.0444, -0.3127, -0.1034, -0.0339, -0.0980, 0.1109, 0.2670, 158, 173
4.1860, 0.1357, -0.5690, 0.0030, 0.3239, -0.0063, 0.8948, 660762, 0.0443, -0.3127, -0.1034, -0.0338, -0.0981, 0.1108, 0.2670, 158, 173
4.2020, 0.3981, -1.3931, 0.2086, 0.3070, -0.0054, 0.8948, 660782, 0.0443, -0.3127, -0.1034, -0.0338, -0.0982, 0.1107, 0.2484, 172, 158
4.2330, 0.2314, -1.0026, -0.0433, 0.2669, -0.0077, 0.8940, 660822, 0.0443, -0.3127, -0.1034, -0.0339, -0.0980, 0.1109, 0.2083, 162, 166
4.2490, 0.2314, -1.0026, -0.0433, 0.2669, -0.0077, 0.8940, 660822, 0.0444, -0.3127, -0.1035, -0.0339, -0.0981, 0.1107, 0.2083, 162, 166
4.2640, -0.2053, -0.5741, -0.0702, 0.2236, -0.0075, 0.8940, 660862, 0.0443, -0.3127, -0.1034, -0.0338, -0.0981, 0.1107, 0.1650, 164, 163
4.2960, 0.2959, -0.6765, -0.1067, 0.2086, -0.0065, 0.8938, 660882, 0.0443, -0.3127, -0.1034, -0.0337, -0.0982, 0.1107, 0.1422, 149, 176
4.3110, 0.2959, -0.6765, -0.1067, 0.2086, -0.0065, 0.8938, 660882, 0.0443, -0.3127, -0.1035, -0.0339, -0.0980, 0.1108, 0.1422, 149, 176
4.3270, -0.0790, -1.6374, 0.0317, 0.1677, -0.0059, 0.8936, 660922, 0.0443, -0.3127, -0.1035, -0.0338, -0.0982, 0.1108, 0.0953, 179, 143
4.3420, -0.0790, -1.6374, 0.0317, 0.1677, -0.0059, 0.8936, 660922, 0.0443, -0.3127, -0.1034, -0.0338, -0.0981, 0.1108, 0.0953, 179, 143
4.3740, 0.2892, -1.8019, -0.1672, 0.1386, -0.0065, 0.8926, 660942, 0.0443, -0.3127, -0.1035, -0.0339, -0.0981, 0.1108, 0.0711, 167, 156
4.3890, -0.3478, -0.4722, 0.3024, 0.0951, -0.0070, 0.8927, 660982, 0.0443, -0.3127, -0.1034, -0.0338, -0.0982, 0.1108, 0.0222, 152, 170
4.4050, -0.3478, -0.4722, 0.3024, 0.0951, -0.0070, 0.8927, 660982, 0.0443, -0.3127, -0.1035, -0.0339, -0.0980, 0.1108, 0.0222, 152, 170
4.4360, -0.1790, -1.2337, -0.3051, 0.0611, -0.0052, 0.8926, 661022, 0.0443, -0.3127, -0.1034, -0.0339, -0.0983, 0.1107, -0.0271, 168, 154
4.4520, -0.0898, -2.0059, -0.2053, 0.0288, -0.0066, 0.8922, 661042, 0.0444, -0.3127, -0.1034, -0.0339, -0.0980, 0.1107, -0.0517, 168, 153
4.4670, -0.0898, -2.0059, -0.2053, 0.0288, -0.0066, 0.8922, 661042, 0.0443, -0.3127, -0.1034, -0.0338, -0.0981, 0.1108, -0.0517, 168, 153
4.4830, 0.0610, -0.9735, 0.1994, -0.0297, -0.0072, 0.8924, 661082, 0.0444, -0.3127, -0.1034, -0.0339, -0.0981, 0.1108, -0.1000, 159, 163
4.5140, -0.2150, -0.8846, 0.0602, -0.0424, -0.0077, 0.8927, 661102, 0.0443, -0.3127, -0.1034, -0.0339, -0.0980, 0.1109, -0.1237, 152, 169
4.5300, -0.2150, -0.8846, 0.0602, -0.0424, -0.0077, 0.8927, 661102, 0.0443, -0.3127, -0.1034, -0.0338, -0.0982, 0.1106, -0.1237, 152, 169
4.5460, -0.0645, -0.7972, -0.1430, -0.0586, -0.0086, 0.8926, 661122, 0.0444, -0.3127, -0.1034, -0.0339, -0.0980, 0.1109, -0.1469, 157, 165
4.5610, -0.0645, -0.7972, -0.1430, -0.0586, -0.0086, 0.8926, 661122, 0.0443, -0.3127, -0.1034, -0.0339, -0.0980, 0.1107, -0.1469, 157, 165
4.5920, 0.1062, -1.9070, 0.1795, -0.1257, -0.0068, 0.8920, 661162, 0.0443, -0.3127, -0.1034, -0.0339, -0.0981, 0.1108, -0.1913, 180, 141
4.6080, -0.2255, -1.1681, 0.1524, -0.1499, -0.0089, 0.8919, 661182, 0.0444, -0.3127, -0.1034, -0.0338, -0.0979, 0.1109, -0.2125, 159, 165
4.6240, -0.2255, -1.1681, 0.1524, -0.1499, -0.0089, 0.8919, 661182, 0.0443, -0.3127, -0.1034, -0.0338, -0.0982, 0.1107, -0.2125, 159, 165
4.6550, 0.2174, -0.6486, -0.2677, -0.1805, -0.0077, 0.8917, 661222, 0.0444, -0.3127, -0.1034, -0.0339, -0.0980, 0.1109, -0.2522, 157, 168
4.6710, -0.0946, -1.2576, -0.2032, -0.2042, -0.0079, 0.8912, 661242, 0.0443, -0.3127, -0.1034, -0.0338, -0.0981, 0.1108, -0.2706, 165, 160
4.6860, -0.0946, -1.2576, -0.2032, -0.2042, -0.0079, 0.8912, 661242, 0.0443, -0.3127, -0.1035, -0.0340, -0.0982, 0.1109, -0.2706, 165, 160
4.7020, -0.1062, -0.4733, -0.1951, -0.2691, -0.0099, 0.8927, 661302, 0.0444, -0.3127, -0.1034, -0.0338, -0.0979, 0.1108, -0.3191, 165, 164
4.7330, 0.1683, -0.6730, -0.1597, -0.2812, -0.0101, 0.8927, 661322, 0.0443, -0.3127, -0.1034, -0.0338, -0.0982, 0.1108, -0.3329, 163, 166
4.7490, 0.1683, -0.6730, -0.1597, -0.2812, -0.0101, 0.8927, 661322, 0.0443, -0.3127, -0.1034, -0.0339, -0.0981, 0.1108, -0.3329, 163, 166
4.7640, -0.2814, -1.1751, 0.0164, -0.3152, -0.0098, 0.8933, 661362, 0.0444, -0.3127, -0.1034, -0.0337, -0.0980, 0.1108, -0.3564, 176, 155
4.7960, 0.0352, -0.4591, -0.2021, -0.3341, -0.0099, 0.8929, 661382, 0.0443, -0.3127, -0.1035, -0.0339, -0.0981, 0.1108, -0.3660, 167, 165
4.8110, 0.0352, -0.4591, -0.2021, -0.3341, -0.0099, 0.8929, 661382, 0.0444, -0.3127, -0.1034, -0.0338, -0.0979, 0.1108, -0.3660, 167, 165
4.8270, -0.1820, -0.6832, -0.0145, -0.3513, -0.0099, 0.8924, 661402, 0.0443, -0.3127, -0.1035, -0.0339, -0.0982, 0.1107, -0.3742, 173, 160
4.8420, -0.1820, -0.6832, -0.0145, -0.3513, -0.0099, 0.8924, 661402, 0.0443, -0.3127, -0.1034, -0.0339, -0.0981, 0.1108, -0.3742, 173, 160
4.8740, -0.0613, -0.2021, -0.1873, -0.3676, -0.0105, 0.8934, 661442, 0.0443, -0.3127, -0.1034, -0.0337, -0.0981, 0.1106, -0.3862, 172, 162
4.8890, 0.0656, 0.0129, -0.2303, -0.3700, -0.0099, 0.8927, 661462, 0.0444, -0.3127, -0.1035, -0.0339, -0.0981, 0.1107, -0.3899, 159, 175
4.9050, 0.0656, 0.0129, -0.2303, -0.3700, -0.0099, 0.8927, 661462, 0.0443, -0.3127, -0.1034, -0.0339, -0.0981, 0.1107, -0.3899, 159, 175
4.9360, -0.4072, -0.2857, -0.0022, -0.3829, -0.0101, 0.8936, 661502, 0.0443, -0.3127, -0.1035, -0.0339, -0.0981, 0.1108, -0.3927, 176, 160
4.9520, 0.1916, -0.6588, 0.0933, -0.4007, -0.0094, 0.8934, 661542, 0.0443, -0.3127, -0.1034, -0.0338, -0.0981, 0.1107, -0.3893, 182, 154
4.9670, 0.1916, -0.6588, 0.0933, -0.4007, -0.0094, 0.8934, 661542, 0.0444, -0.3127, -0.1034, -0.0338, -0.0979, 0.1108, -0.3893, 182, 154
4.9830, -0.0726, -0.4287, 0.1675, -0.4079, -0.0098, 0.8938, 661562, 0.0443, -0.3127, -0.1035, -0.0339, -0.0980, 0.1109, -0.3853, 185, 151
5.0140, -0.0712, 0.3814, -0.1427, -0.4082, -0.0087, 0.8931, 661602, 0.0443, -0.3127, -0.1034, -0.0339, -0.0982, 0.1107, -0.3727, 171, 167
5.0300, -0.0712, 0.3814, -0.1427, -0.4082, -0.0087, 0.8931, 661602, 0.0443, -0.3127, -0.1034, -0.0339, -0.0979, 0.1108, -0.3727, 171, 167
5.0450, -0.3131, 0.6553, -0.1973, -0.3978, -0.0087, 0.8940, 661642, 0.0444, -0.3127, -0.1034, -0.0339, -0.0981, 0.1107, -0.3543, 171, 166
5.0610, -0.3131, 0.6553, -0.1973, -0.3978, -0.0087, 0.8940, 661642, 0.0444, -0.3127, -0.1034, -0.0338, -0.0979, 0.1109, -0.3543, 171, 166
5.0920, 0.1398, 0.5389, -0.0962, -0.3897, -0.0094, 0.8938, 661662, 0.0443, -0.3127, -0.1035, -0.0339, -0.0982, 0.1108, -0.3429, 169, 168
5.1080, -0.1508, 0.7039, 0.0452, -0.3740, -0.0086, 0.8945, 661702, 0.0443, -0.3127, -0.1034, -0.0339, -0.0982, 0.1107, -0.3162, 173, 162
5.1240, -0.1508, 0.7039, 0.0452, -0.3740, -0.0086, 0.8945, 661702, 0.0443, -0.3127, -0.1035, -0.0338, -0.0980, 0.1109, -0.3162, 173, 162
5.1550, 0.0852, 0.7873, -0.1994, -0.3632, -0.0079, 0.8940, 661722, 0.0443, -0.3127, -0.1034, -0.0338, -0.0982, 0.1106, -0.3010, 169, 166
5.1700, -0.0339, 0.2634, 0.0712, -0.3431, -0.0091, 0.8950, 661762, 0.0444, -0.3127, -0.1035, -0.0339, -0.0980, 0.1108, -0.2670, 184, 147
5.1860, -0.0339, 0.2634, 0.0712, -0.3431, -0.0091, 0.8950, 661762, 0.0443, -0.3127, -0.1034, -0.0339, -0.0980, 0.1108, -0.2670, 184, 147
5.2020, 0.2586, 1.2122, 0.0500, -0.3047, -0.0093, 0.8943, 661802, 0.0443, -0.3127, -0.1034, -0.0338, -0.0982, 0.1108, -0.2288, 160, 170
5.2330, -0.0489, 0.9518, 0.0771, -0.2836, -0.0087, 0.8950, 661822, 0.0443, -0.3127, -0.1035, -0.0339, -0.0980, 0.1109, -0.2083, 172, 157
5.2490, -0.0489, 0.9518, 0.0771, -0.2836, -0.0087, 0.8950, 661822, 0.0443, -0.3127, -0.1034, -0.0339, -0.0982, 0.1107, -0.2083, 172, 157
5.2640, 0.1545, 0.9878, -0.0790, -0.2480, -0.0091, 0.8950, 661862, 0.0444, -0.3127, -0.1035, -0.0339, -0.0980, 0.1107, -0.1650, 168, 160
5.2950, 0.0554, 0.6832, 0.0707, -0.2320, -0.0096, 0.8952, 661882, 0.0443, -0.3127, -0.1034, -0.0339, -0.0980, 0.1107, -0.1422, 174, 151
5.3110, 0.0554, 0.6832, 0.0707, -0.2320, -0.0096, 0.8952, 661882, 0.0443, -0.3127, -0.1035, -0.0338, -0.0982, 0.1108, -0.1422, 174, 151
5.3270, -0.0497, 1.2598, -0.2363, -0.1902, -0.0099, 0.8955, 661922, 0.0444, -0.3127, -0.1034, -0.0338, -0.0980, 0.1108, -0.0953, 162, 163
5.3420, -0.0497, 1.2598, -0.2363, -0.1902, -0.0099, 0.8955, 661922, 0.0444, -0.3127, -0.1034, -0.0339, -0.0981, 0.1108, -0.0953, 162, 163
5.3740, 0.0419, 1.2807, 0.1204, -0.1414, -0.0101, 0.8969, 661962, 0.0443, -0.3127, -0.1035, -0.0338, -0.0981, 0.1108, -0.0468, 174, 149
5.3890, -0.3279, 1.4001, -0.0812, -0.1176, -0.0096, 0.8969, 661982, 0.0444, -0.3127, -0.1034, -0.0339, -0.0981, 0.1108, -0.0222, 161, 162
5.4050, -0.3279, 1.4001, -0.0812, -0.1176, -0.0096, 0.8969, 661982, 0.0443, -0.3127, -0.1035, -0.0338, -0.0982, 0.1108, -0.0222, 161, 162
5.4360, 0.1115, 0.7061, 0.0946, -0.0724, -0.0103, 0.8966, 662022, 0.0444, -0.3127, -0.1035, -0.0338, -0.0981, 0.1108, 0.0271, 174, 147
5.4520, -0.2408, 1.3700, -0.0745, -0.0487, -0.0115, 0.8957, 662042, 0.0443, -0.3127, -0.1034, -0.0339, -0.0980, 0.1108, 0.0517, 164, 157
5.4670, -0.2408, 1.3700, -0.0745, -0.0487, -0.0115, 0.8957, 662042, 0.0444, -0.3128, -0.1035, -0.0339, -0.0981, 0.1109, 0.0517, 164, 157
5.4830, 0.1642, 1.6791, -0.1887, -0.0229, -0.0108, 0.8954, 662062, 0.0444, -0.3127, -0.1034, -0.0338, -0.0979, 0.1108, 0.0760, 156, 166
5.5140, 0.1357, 0.8397, 0.1422, 0.0278, -0.0115, 0.8952, 662102, 0.0443, -0.3127, -0.1035, -0.0338, -0.0981, 0.1107, 0.1237, 176, 145
5.5300, 0.1357, 0.8397, 0.1422, 0.0278, -0.0115, 0.8952, 662102, 0.0443, -0.3127, -0.1034, -0.0338, -0.0981, 0.1108, 0.1237, 176, 145
5.5450, 0.0255, 1.2582, -0.2473, 0.0501, -0.0112, 0.8947, 662122, 0.0444, -0.3127, -0.1034, -0.0338, -0.0981, 0.1108, 0.1469, 162, 160
5.5610, 0.0255, 1.2582, -0.2473, 0.0501, -0.0112, 0.8947, 662122, 0.0443, -0.3127, -0.1034, -0.0339, -0.0982, 0.1107, 0.1469, 162, 160
5.5920, -0.0091, 1.1154, 0.3069, 0.0995, -0.0110, 0.8945, 662162, 0.0443, -0.3127, -0.1034, -0.0339, -0.0981, 0.1107, 0.1913, 168, 154
5.6080, -0.4647, 1.4092, -0.1425, 0.1262, -0.0119, 0.8936, 662182, 0.0443, -0.3127, -0.1035, -0.0338, -0.0981, 0.1107, 0.2125, 158, 164
5.6230, -0.4647, 1.4092, -0.1425, 0.1262, -0.0119, 0.8936, 662182, 0.0443, -0.3127, -0.1034, -0.0338, -0.0983, 0.1107, 0.2125, 158, 164
5.6550, 0.2795, 0.7432, 0.1236, 0.1667, -0.0113, 0.8933, 662222, 0.0443, -0.3127, -0.1035, -0.0339, -0.0981, 0.1109, 0.2522, 168, 155
5.6700, 0.2053, 1.1676, -0.0941, 0.2080, -0.0113, 0.8927, 662262, 0.0443, -0.3127, -0.1034, -0.0338, -0.0981, 0.1106, 0.2880, 169, 157
5.6860, 0.2053, 1.1676, -0.0941, 0.2080, -0.0113, 0.8927, 662262, 0.0444, -0.3126, -0.1034, -0.0338, -0.0980, 0.1108, 0.2880, 169, 157
5.7020, -0.0108, 0.9410, 0.0788, 0.2309, -0.0108, 0.8922, 662282, 0.0443, -0.3128, -0.1035, -0.0339, -0.0980, 0.1106, 0.3041, 165, 161
5.7330, -0.1089, 1.3641, -0.2446, 0.2752, -0.0108, 0.8920, 662322, 0.0444, -0.3127, -0.1034, -0.0339, -0.0981, 0.1108, 0.3329, 154, 174
5.7480, -0.1089, 1.3641, -0.2446, 0.2752, -0.0108, 0.8920, 662322, 0.0444, -0.3127, -0.1035, -0.0339, -0.0980, 0.1108, 0.3329, 154, 174
5.7640, -0.1680, 0.7687, -0.0218, 0.2937, -0.0115, 0.8917, 662342, 0.0443, -0.3127, -0.1034, -0.0338, -0.0982, 0.1106, 0.3453, 161, 169
5.7950, -0.0277, 0.8886, -0.2355, 0.3194, -0.0103, 0.8919, 662382, 0.0443, -0.3127, -0.1034, -0.0339, -0.0981, 0.1109, 0.3660, 163, 168
5.8110, -0.0277, 0.8886, -0.2355, 0.3194, -0.0103, 0.8919, 662382, 0.0443, -0.3127, -0.1035, -0.0338, -0.0981, 0.1108, 0.3660, 163, 168
5.8270, 0.3618, 0.1105, 0.3620, 0.3437, -0.0105, 0.8922, 662422, 0.0443, -0.3127, -0.1034, -0.0338, -0.0983, 0.1107, 0.3810, 174, 158
5.8420, 0.3618, 0.1105, 0.3620, 0.3437, -0.0105, 0.8922, 662422, 0.0443, -0.3127, -0.1035, -0.0339, -0.0981, 0.1108, 0.3810, 174, 158
5.8730, -0.3518, 1.0388, -0.2699, 0.3580, -0.0105, 0.8919, 662442, 0.0443, -0.3127, -0.1034, -0.0339, -0.0980, 0.1107, 0.3862, 158, 175
5.8890, 0.2411, -0.0086, 0.2002, 0.3777, -0.0089, 0.8917, 662482, 0.0443, -0.3127, -0.1035, -0.0339, -0.0981, 0.1108, 0.3921, 173, 163
5.9050, 0.2411, -0.0086, 0.2002, 0.3777, -0.0089, 0.8917, 662482, 0.0443, -0.3127, -0.1034, -0.0339, -0.0981, 0.1108, 0.3921, 173, 163
5.9360, -0.5198, 0.3155, -0.1556, 0.3810, -0.0098, 0.8913, 662502, 0.0444, -0.3127, -0.1034, -0.0338, -0.0982, 0.1107, 0.3927, 165, 171
5.9510, -0.0005, -0.1140, 0.0505, 0.3864, -0.0073, 0.8917, 662542, 0.0443, -0.3127, -0.1034, -0.0338, -0.0981, 0.1107, 0.3893, 171, 165
5.9670, -0.0005, -0.1140, 0.0505, 0.3864, -0.0073, 0.8917, 662542, 0.0443, -0.3127, -0.1034, -0.0338, -0.0982, 0.1107, 0.3893, 171, 165
5.9830, 0.3806, 0.2857, -0.0868, 0.3930, -0.0075, 0.8915, 662582, 0.0443, -0.3127, -0.1035, -0.0339, -0.0980, 0.1108, 0.3797, 155, 181
6.0140, -0.0280, -0.0675, 0.1750, 0.3972, -0.0077, 0.8920, 662602, 0.0443, -0.3127, -0.1034, -0.0338, -0.0980, 0.1107, 0.3727, 161, 176
6.0300, -0.0280, -0.0675, 0.1750, 0.3972, -0.0077, 0.8920, 662602, 0.0444, -0.3127, -0.1034, -0.0338, -0.0981, 0.1108, 0.3727, 161, 176
6.0450, 0.0992, -0.0761, -0.0543, 0.3976, -0.0072, 0.8917, 662642, 0.0443, -0.3127, -0.1034, -0.0339, -0.0982, 0.1107, 0.3543, 152, 183
6.0760, 0.1124, -0.5526, 0.1871, 0.3915, -0.0066, 0.8919, 662662, 0.0443, -0.3126, -0.1034, -0.0337, -0.0982, 0.1107, 0.3429, 161, 176
6.0920, 0.1124, -0.5526, 0.1871, 0.3915, -0.0066, 0.8919, 662662, 0.0443, -0.3127, -0.1035, -0.0338, -0.0981, 0.1108, 0.3429, 161, 176
6.1080, 0.1602, -0.2647, -0.1548, 0.3777, -0.0045, 0.8915, 662702, 0.0444, -0.3127, -0.1034, -0.0338, -0.0980, 0.1108, 0.3162, 153, 181
6.1230, 0.1602, -0.2647, -0.1548, 0.3777, -0.0045, 0.8915, 662702, 0.0444, -0.3127, -0.1034, -0.0338, -0.0979, 0.1108, 0.3162, 153, 181
6.1550, 0.0102, -0.4483, -0.1099, 0.3541, -0.0037, 0.8920, 662742, 0.0443, -0.3127, -0.1034, -0.0339, -0.0983, 0.1107, 0.2846, 163, 171
6.1700, 0.0102, -0.4483, -0.1099, 0.3541, -0.0037, 0.8920, 662742, 0.0443, -0.3126, -0.1034, -0.0339, -0.0978, 0.1108, 0.2846, 163, 171
6.1860, 0.0102, -0.4483, -0.1099, 0.3541, -0.0037, 0.8920, 662742, 0.0443, -0.3127, -0.1035, -0.0339, -0.0981, 0.1107, 0.2846, 163, 171
6.2010, 0.1368, -1.3125, 0.2709, 0.3190, -0.0042, 0.8917, 662782, 0.0443, -0.3127, -0.1034, -0.0338, -0.0981, 0.1108, 0.2484, 171, 160
6.2330, -0.0169, -0.9550, -0.0339, 0.2993, -0.0042, 0.8917, 662802, 0.0443, -0.3127, -0.1035, -0.0339, -0.0981, 0.1108, 0.2288, 168, 162
6.2480, -0.0169, -0.9550, -0.0339, 0.2993, -0.0042, 0.8917, 662802, 0.0443, -0.3126, -0.1034, -0.0339, -0.0983, 0.1107, 0.2288, 168, 162
6.2640, 0.0419, -1.3350, 0.3158, 0.2621, -0.0052, 0.8906, 662842, 0.0444, -0.3127, -0.1034, -0.0338, -0.0980, 0.1108, 0.1870, 169, 159
6.2950, -0.4389, -0.5808, -0.2594, 0.2190, -0.0066, 0.8903, 662882, 0.0443, -0.3127, -0.1035, -0.0339, -0.0980, 0.1107, 0.1422, 149, 176
6.3110, -0.4389, -0.5808, -0.2594, 0.2190, -0.0066, 0.8903, 662882, 0.0443, -0.3127, -0.1034, -0.0338, -0.0982, 0.1107, 0.1422, 149, 176
6.3260, 0.2841, -1.4517, 0.2502, 0.1946, -0.0059, 0.8905, 662902, 0.0443, -0.3127, -0.1035, -0.0338, -0.0980, 0.1108, 0.1190, 168, 157
6.3420, 0.2841, -1.4517, 0.2502, 0.1946, -0.0059, 0.8905, 662902, 0.0443, -0.3127, -0.1034, -0.0339, -0.0983, 0.1105, 0.1190, 168, 157
6.3730, -0.1328, -1.2098, -0.1779, 0.1445, -0.0073, 0.8903, 662942, 0.0444, -0.3126, -0.1034, -0.0338, -0.0980, 0.1109, 0.0711, 165, 159
6.3890, -0.3295, -1.0254, 0.0040, 0.0983, -0.0059, 0.8913, 662982, 0.0443, -0.3127, -0.1034, -0.0338, -0.0982, 0.1107, 0.0222, 160, 162
6.4040, -0.3295, -1.0254, 0.0040, 0.0983, -0.0059, 0.8913, 662982, 0.0444, -0.3127, -0.1034, -0.0339, -0.0981, 0.1108, 0.0222, 160, 162
6.4360, 0.0906, -0.7405, -0.0930, 0.0778, -0.0063, 0.8913, 663002, 0.0443, -0.3127, -0.1035, -0.0339, -0.0981, 0.1108, -0.0025, 160, 162
6.4510, -0.0204, -1.5880, 0.0994, 0.0267, -0.0056, 0.8915, 663042, 0.0443, -0.3127, -0.1034, -0.0339, -0.0982, 0.1107, -0.0517, 164, 157
6.4670, -0.0204, -1.5880, 0.0994, 0.0267, -0.0056, 0.8915, 663042, 0.0443, -0.3127, -0.1034, -0.0339, -0.0980, 0.1108, -0.0517, 164, 157
6.4830, 0.0860, -1.1101, -0.1599, 0.0009, -0.0059, 0.8912, 663062, 0.0443, -0.3127, -0.1035, -0.0338, -0.0981, 0.1108, -0.0760, 171, 149
6.5140, 0.0005, -1.4275, 0.1564, -0.0440, -0.0059, 0.8915, 663102, 0.0443, -0.3127, -0.1034, -0.0338, -0.0981, 0.1108, -0.1237, 162, 160
6.5290, 0.0005, -1.4275, 0.1564, -0.0440, -0.0059, 0.8915, 663102, 0.0443, -0.3127, -0.1035, -0.0339, -0.0981, 0.1108, -0.1237, 162, 160
6.5450, -0.1750, -0.6763, -0.3411, -0.0956, -0.0070, 0.8917, 663142, 0.0443, -0.3127, -0.1034, -0.0339, -0.0981, 0.1106, -0.1695, 157, 166
6.5760, 0.1505, -1.2294, 0.2072, -0.1196, -0.0066, 0.8920, 663162, 0.0444, -0.3127, -0.1034, -0.0339, -0.0980, 0.1108, -0.1913, 159, 163
6.5920, 0.1505, -1.2294, 0.2072, -0.1196, -0.0066, 0.8920, 663162, 0.0444, -0.3127, -0.1034, -0.0339, -0.0979, 0.1106, -0.1913, 159, 163
6.6080, -0.3623, -0.8969, -0.2277, -0.1630, -0.0084, 0.8926, 663202, 0.0444, -0.3127, -0.1035, -0.0339, -0.0981, 0.1108, -0.2328, 160, 164
6.6230, -0.3623, -0.8969, -0.2277, -0.1630, -0.0084, 0.8926, 663202, 0.0443, -0.3127, -0.1034, -0.0339, -0.0981, 0.1107, -0.2328, 160, 164
6.6540, 0.3758, -1.4003, 0.0212, -0.1890, -0.0080, 0.8929, 663222, 0.0443, -0.3127, -0.1035, -0.0339, -0.0980, 0.1109, -0.2522, 167, 158
6.6700, -0.0056, -1.1197, 0.0363, -0.2402, -0.0080, 0.8938, 663262, 0.0443, -0.3127, -0.1035, -0.0339, -0.0981, 0.1107, -0.2880, 177, 149
6.6860, -0.0056, -1.1197, 0.0363, -0.2402, -0.0080, 0.8938, 663262, 0.0444, -0.3127, -0.1034, -0.0338, -0.0980, 0.1107, -0.2880, 177, 149
6.7170, -0.0306, -0.7034, -0.1881, -0.2761, -0.0072, 0.8938, 663302, 0.0443, -0.3127, -0.1035, -0.0339, -0.0980, 0.1108, -0.3191, 166, 163
6.7330, 0.1930, -1.3098, 0.3328, -0.2950, -0.0075, 0.8947, 663322, 0.0443, -0.3126, -0.1034, -0.0338, -0.0982, 0.1107, -0.3329, 179, 150
6.7480, 0.1930, -1.3098, 0.3328, -0.2950, -0.0075, 0.8947, 663322, 0.0443, -0.3127, -0.1035, -0.0339, -0.0980, 0.1109, -0.3329, 179, 150
6.7640, 0.2231, -0.6892, -0.0516, -0.3259, -0.0084, 0.8955, 663362, 0.0443, -0.3127, -0.1034, -0.0339, -0.0982, 0.1107, -0.3564, 170, 162
6.7950, 0.0613, -0.9087, 0.1360, -0.3398, -0.0082, 0.8962, 663382, 0.0444, -0.3127, -0.1034, -0.0338, -0.0980, 0.1107, -0.3660, 174, 158
6.8110, 0.0613, -0.9087, 0.1360, -0.3398, -0.0082, 0.8962, 663382, 0.0444, -0.3127, -0.1035, -0.0339, -0.0980, 0.1107, -0.3660, 174, 158
6.8260, 0.1537, -0.3500, -0.1930, -0.3656, -0.0077, 0.8968, 663422, 0.0443, -0.3127, -0.1034, -0.0338, -0.0982, 0.1107, -0.3810, 169, 166
6.8420, 0.1537, -0.3500, -0.1930, -0.3656, -0.0077, 0.8968, 663422, 0.0444, -0.3127, -0.1035, -0.0339, -0.0980, 0.1109, -0.3810, 169, 166
6.8730, -0.1392, -0.8311, 0.1591, -0.3779, -0.0079, 0.8969, 663442, 0.0443, -0.3127, -0.1034, -0.0338, -0.0982, 0.1107, -0.3862, 176, 159
6.8890, 0.0645, -0.6948, 0.1865, -0.3883, -0.0079, 0.8976, 663462, 0.0444, -0.3127, -0.1034, -0.0338, -0.0980, 0.1108, -0.3899, 180, 155
6.9040, 0.0645, -0.6948, 0.1865, -0.3883, -0.0079, 0.8976, 663462, 0.0443, -0.3127, -0.1035, -0.0339, -0.0981, 0.1107, -0.3899, 180, 155
6.9360, 0.2024, -0.4975, 0.1032, -0.4060, -0.0084, 0.8974, 663502, 0.0443, -0.3127, -0.1035, -0.0340, -0.0981, 0.1108, -0.3927, 179, 158
6.9510, -0.1177, 0.0857, -0.0806, -0.4133, -0.0091, 0.8974, 663542, 0.0443, -0.3127, -0.1034, -0.0338, -0.0980, 0.1109, -0.3893, 174, 164
6.9670, -0.1177, 0.0857, -0.0806, -0.4133, -0.0091, 0.8974, 663542, 0.0443, -0.3127, -0.1035, -0.0339, -0.0982, 0.1107, -0.3893, 174, 164
6.9820, 0.2876, -0.0312, -0.1527, -0.4149, -0.0087, 0.8974, 663562, 0.0443, -0.3127, -0.1034, -0.0338, -0.0981, 0.1108, -0.3853, 176, 162
7.0140, 0.0110, -0.2274, 0.1158, -0.4182, -0.0089, 0.8985, 663602, 0.0443, -0.3127, -0.1034, -0.0338, -0.0981, 0.1108, -0.3727, 188, 149
7.0290, 0.0110, -0.2274, 0.1158, -0.4182, -0.0089, 0.8985, 663602, 0.0443, -0.3127, -0.1035, -0.0339, -0.0982, 0.1108, -0.3727, 188, 149
7.0450, -0.0056, 0.3400, -0.3177, -0.4170, -0.0087, 0.8983, 663622, 0.0444, -0.3127, -0.1034, -0.0338, -0.0980, 0.1109, -0.3642, 176, 162
7.0760, 0.0769, -0.2465, 0.1148, -0.4131, -0.0089, 0.8988, 663662, 0.0443, -0.3128, -0.1035, -0.0339, -0.0982, 0.1107, -0.3429, 193, 142
7.0920, 0.0769, -0.2465, 0.1148, -0.4131, -0.0089, 0.8988, 663662, 0.0443, -0.3126, -0.1035, -0.0338, -0.0981, 0.1108, -0.3429, 193, 142
7.1070, 0.2989, 0.6566, -0.0874, -0.3997, -0.0094, 0.8985, 663702, 0.0444, -0.3127, -0.1034, -0.0338, -0.0980, 0.1107, -0.3162, 178, 158
7.1230, 0.2989, 0.6566, -0.0874, -0.3997, -0.0094, 0.8985, 663702, 0.0443, -0.3128, -0.1035, -0.0339, -0.0981, 0.1108, -0.3162, 178, 158
7.1540, -0.1556, 0.5521, 0.1669, -0.3850, -0.0096, 0.8985, 663722, 0.0444, -0.3127, -0.1034, -0.0338, -0.0980, 0.1108, -0.3010, 172, 164
7.1700, -0.0250, 0.4220, 0.2164, -0.3690, -0.0106, 0.8988, 663742, 0.0443, -0.3127, -0.1035, -0.0338, -0.0982, 0.1108, -0.2846, 183, 151
7.1860, -0.0250, 0.4220, 0.2164, -0.3690, -0.0106, 0.8988, 663742, 0.0443, -0.3127, -0.1034, -0.0338, -0.0981, 0.1109, -0.2846, 183, 151
7.2170, -0.0758, 1.2243, -0.2371, -0.3363, -0.0117, 0.8985, 663782, 0.0444, -0.3127, -0.1034, -0.0338, -0.0980, 0.1108, -0.2484, 167, 166
7.2320, -0.2768, 1.3603, -0.0589, -0.3019, -0.0133, 0.8988, 663822, 0.0444, -0.3127, -0.1035, -0.0339, -0.0981, 0.1108, -0.2083, 167, 163
7.2480, -0.2768, 1.3603, -0.0589, -0.3019, -0.0133, 0.8988, 663822, 0.0443, -0.3127, -0.1034, -0.0339, -0.0982, 0.1108, -0.2083, 167, 163
7.2640, 0.3328, 1.1222, -0.0777, -0.2827, -0.0126, 0.8988, 663842, 0.0443, -0.3127, -0.1035, -0.0339, -0.0982, 0.1108, -0.1870, 169, 160
7.2950, 0.0398, 0.8668, 0.2244, -0.2445, -0.0122, 0.8992, 663882, 0.0443, -0.3127, -0.1035, -0.0340, -0.0981, 0.1109, -0.1422, 178, 148
7.3110, 0.0398, 0.8668, 0.2244, -0.2445, -0.0122, 0.8992, 663882, 0.0444, -0.3126, -0.1034, -0.0337, -0.0980, 0.1107, -0.1422, 178, 148
7.3260, 0.0462, 1.6358, -0.0957, -0.1932, -0.0127, 0.8983, 663922, 0.0443, -0.3127, -0.1035, -0.0338, -0.0982, 0.1108, -0.0953, 158, 167
7.3420, 0.0462, 1.6358, -0.0957, -0.1932, -0.0127, 0.8983, 663922, 0.0443, -0.3127, -0.1034, -0.0338, -0.0982, 0.1108, -0.0953, 158, 167
7.3730, 0.3481, 0.7090, 0.2989, -0.1691, -0.0119, 0.8988, 663942, 0.0443, -0.3127, -0.1035, -0.0339, -0.0981, 0.1109, -0.0711, 172, 152
7.3890, 0.2610, 1.1875, -0.0632, -0.1262, -0.0136, 0.8990, 663982, 0.0443, -0.3127, -0.1034, -0.0338, -0.0982, 0.1108, -0.0222, 167, 156
7.4040, 0.2610, 1.1875, -0.0632, -0.1262, -0.0136, 0.8990, 663982, 0.0443, -0.3127, -0.1034, -0.0339, -0.0981, 0.1108, -0.0222, 167, 156
7.4350, 0.0788, 1.2474, 0.0427, -0.1005, -0.0129, 0.8988, 664002, 0.0444, -0.3127, -0.1035, -0.0339, -0.0979, 0.1108, 0.0025, 164, 159
7.4510, 0.1984, 1.4713, -0.1648, -0.0429, -0.0133, 0.8987, 664042, 0.0443, -0.3127, -0.1035, -0.0338, -0.0984, 0.1108, 0.0517, 163, 159
7.4670, 0.1984, 1.4713, -0.1648, -0.0429, -0.0133, 0.8987, 664042, 0.0444, -0.3127, -0.1034, -0.0338, -0.0979, 0.1108, 0.0517, 163, 159
7.4820, -0.1610, 0.6905, 0.1301, -0.0079, -0.0131, 0.8974, 664082, 0.0443, -0.3127, -0.1034, -0.0338, -0.0981, 0.1107, 0.1000, 177, 143
7.5140, -0.3414, 1.2944, 0.3032, 0.0122, -0.0141, 0.8978, 664102, 0.0443, -0.3127, -0.1035, -0.0339, -0.0981, 0.1109, 0.1237, 166, 155
7.5290, -0.3414, 1.2944, 0.3032, 0.0122, -0.0141, 0.8978, 664102, 0.0444, -0.3127, -0.1034, -0.0338, -0.0980, 0.1108, 0.1237, 166, 155
7.5450, 0.0032, 2.1322, -0.1210, 0.0864, -0.0134, 0.8969, 664142, 0.0443, -0.3127, -0.1034, -0.0337, -0.0982, 0.1108, 0.1695, 148, 173
7.5760, 0.2707, 1.0794, -0.2166, 0.1110, -0.0129, 0.8957, 664162, 0.0444, -0.3126, -0.1035, -0.0338, -0.0979, 0.1108, 0.1913, 163, 160
7.5920, 0.2707, 1.0794, -0.2166, 0.1110, -0.0129, 0.8957, 664162, 0.0443, -0.3127, -0.1034, -0.0338, -0.0982, 0.1107, 0.1913, 163, 160
7.6070, -0.2876, 0.6537, 0.1392, 0.1337, -0.0122, 0.8955, 664202, 0.0444, -0.3127, -0.1035, -0.0338, -0.0981, 0.1107, 0.2328, 177, 145
7.6230, -0.2876, 0.6537, 0.1392, 0.1337, -0.0122, 0.8955, 664202, 0.0443, -0.3127, -0.1034, -0.0338, -0.0981, 0.1108, 0.2328, 177, 145
7.6540, -0.2553, 1.2778, 0.1035, 0.1566, -0.0120, 0.8948, 664222, 0.0443, -0.3127, -0.1035, -0.0339, -0.0982, 0.1108, 0.2522, 164, 160
7.6700, 0.3505, 1.6672, -0.2029, 0.2206, -0.0112, 0.8947, 664262, 0.0443, -0.3127, -0.1034, -0.0338, -0.0981, 0.1108, 0.2880, 149, 176
7.6850, 0.3505, 1.6672, -0.2029, 0.2206, -0.0112, 0.8947, 664262, 0.0444, -0.3127, -0.1034, -0.0338, -0.0981, 0.1106, 0.2880, 149, 176
7.7170, -0.3516, 0.4085, 0.2137, 0.2604, -0.0119, 0.8941, 664302, 0.0443, -0.3127, -0.1035, -0.0339, -0.0982, 0.1108, 0.3191, 172, 156
7.7320, 0.0360, -0.0892, 0.0191, 0.2683, -0.0115, 0.8948, 664322, 0.0444, -0.3127, -0.1034, -0.0338, -0.0979, 0.1107, 0.3329, 183, 143
7.7480, 0.0360, -0.0892, 0.0191, 0.2683, -0.0115, 0.8948, 664322, 0.0443, -0.3127, -0.1035, -0.0338, -0.0982, 0.1107, 0.3329, 183, 143
7.7640, -0.1247, 1.4893, 0.0032, 0.2985, -0.0115, 0.8941, 664362, 0.0443, -0.3127, -0.1034, -0.0339, -0.0981, 0.1108, 0.3564, 154, 175
7.7950, -0.1610, 0.8722, 0.3274, 0.3234, -0.0119, 0.8948, 664382, 0.0444, -0.3127, -0.1034, -0.0338, -0.0981, 0.1107, 0.3660, 158, 173
7.8100, -0.1610, 0.8722, 0.3274, 0.3234, -0.0119, 0.8948, 664382, 0.0443, -0.3127, -0.1035, -0.0339, -0.0982, 0.1108, 0.3660, 158, 173
7.8260, -0.1984, 0.6394, 0.0798, 0.3423, -0.0119, 0.8950, 664402, 0.0443, -0.3126, -0.1034, -0.0339, -0.0981, 0.1107, 0.3742, 166, 166
7.8570, 0.3231, 0.1107, 0.0736, 0.3583, -0.0110, 0.8945, 664442, 0.0443, -0.3127, -0.1035, -0.0338, -0.0979, 0.1109, 0.3862, 169, 165
7.8730, 0.3231, 0.1107, 0.0736, 0.3583, -0.0110, 0.8945, 664442, 0.0443, -0.3126, -0.1034, -0.0338, -0.0983, 0.1107, 0.3862, 169, 165
7.8890, 0.2914, -0.1459, 0.1887, 0.3599, -0.0099, 0.8957, 664462, 0.0443, -0.3127, -0.1035, -0.0339, -0.0980, 0.1108, 0.3899, 175, 159
7.9040, 0.2914, -0.1459, 0.1887, 0.3599, -0.0099, 0.8957, 664462, 0.0443, -0.3127, -0.1035, -0.0339, -0.0980, 0.1107, 0.3899, 175, 159
7.9350, 0.3365, 0.4072, 0.0013, 0.3697, -0.0103, 0.8952, 664502, 0.0443, -0.3126, -0.1034, -0.0338, -0.0981, 0.1108, 0.3927, 165, 170
7.9510, -0.2043, 0.3774, 0.0645, 0.3862, -0.0101, 0.8954, 664542, 0.0443, -0.3127, -0.1035, -0.0339, -0.0981, 0.1108, 0.3893, 164, 172
7.9670, -0.2043, 0.3774, 0.0645, 0.3862, -0.0101, 0.8954, 664542, 0.0443, -0.3127, -0.1034, -0.0338, -0.0981, 0.1108, 0.3893, 164, 172
7.9820, 0.0650, 0.4486, -0.1691, 0.3925, -0.0093, 0.8945, 664562, 0.0443, -0.3127, -0.1035, -0.0339, -0.0980, 0.1108, 0.3853, 158, 178
8.0130, -0.0484, -0.4456, 0.1239, 0.3880, -0.0096, 0.8947, 664602, 0.0443, -0.3127, -0.1034, -0.0338, -0.0981, 0.1107, 0.3727, 167, 169
8.0290, -0.0484, -0.4456, 0.1239, 0.3880, -0.0096, 0.8947, 664602, 0.0443, -0.3127, -0.1034, -0.0339, -0.0981, 0.1108, 0.3727, 167, 169
8.0450, 0.0659, 0.0618, -0.1489, 0.3834, -0.0101, 0.8945, 664622, 0.0443, -0.3127, -0.1035, -0.0339, -0.0979, 0.1108, 0.3642, 163, 172
8.0760, 0.0357, -0.6883, 0.2836, 0.3735, -0.0086, 0.8945, 664662, 0.0443, -0.3127, -0.1034, -0.0339, -0.0982, 0.1108, 0.3429, 170, 165
8.0920, 0.0357, -0.6883, 0.2836, 0.3735, -0.0086, 0.8945, 664662, 0.0444, -0.3127, -0.1035, -0.0338, -0.0980, 0.1108, 0.3429, 170, 165
8.1070, -0.1795, -0.3618, -0.1924, 0.3609, -0.0084, 0.8936, 664702, 0.0443, -0.3127, -0.1034, -0.0339, -0.0981, 0.1108, 0.3162, 154, 180
8.1230, -0.1795, -0.3618, -0.1924, 0.3609, -0.0084, 0.8936, 664702, 0.0443, -0.3127, -0.1035, -0.0339, -0.0981, 0.1109, 0.3162, 154, 180
8.1540, 0.3438, -0.7351, 0.2777, 0.3519, -0.0077, 0.8940, 664722, 0.0444, -0.3127, -0.1034, -0.0338, -0.0978, 0.1108, 0.3010, 166, 168
8.1700, -0.0943, -0.4825, -0.3008, 0.3266, -0.0091, 0.8938, 664762, 0.0444, -0.3127, -0.1034, -0.0339, -0.0981, 0.1107, 0.2670, 153, 178
8.1850, -0.0943, -0.4825, -0.3008, 0.3266, -0.0091, 0.8938, 664762, 0.0443, -0.3127, -0.1035, -0.0339, -0.0981, 0.1109, 0.2670, 153, 178
8.2170, 0.3903, -1.1224, 0.2411, 0.3096, -0.0073, 0.8943, 664782, 0.0444, -0.3127, -0.1034, -0.0338, -0.0981, 0.1108, 0.2484, 168, 162
8.2320, -0.1253, -0.8120, -0.2435, 0.2723, -0.0072, 0.8940, 664822, 0.0443, -0.3127, -0.1035, -0.0339, -0.0981, 0.1108, 0.2083, 161, 167
8.2480, -0.1253, -0.8120, -0.2435, 0.2723, -0.0072, 0.8940, 664822, 0.0443, -0.3127, -0.1034, -0.0339, -0.0980, 0.1107, 0.2083, 161, 167
8.2630, -0.3879, -1.0821, 0.0554, 0.2311, -0.0059, 0.8938, 664862, 0.0444, -0.3127, -0.1034, -0.0339, -0.0981, 0.1109, 0.1650, 166, 161
8.2950, -0.2914, -0.9407, -0.1051, 0.2098, -0.0063, 0.8938, 664882, 0.0443, -0.3127, -0.1035, -0.0338, -0.0981, 0.1107, 0.1422, 165, 161
8.3100, -0.2914, -0.9407, -0.1051, 0.2098, -0.0063, 0.8938, 664882, 0.0443, -0.3127, -0.1034, -0.0338, -0.0981, 0.1108, 0.1422, 165, 161
8.3260, -0.1330, -1.1963, 0.1298, 0.1696, -0.0047, 0.8941, 664922, 0.0443, -0.3127, -0.1035, -0.0339, -0.0981, 0.1108, 0.0953, 159, 165
8.3570, 0.0210, -0.8577, -0.1344, 0.1470, -0.0038, 0.8943, 664942, 0.0444, -0.3127, -0.1034, -0.0339, -0.0981, 0.1108, 0.0711, 168, 156
8.3730, 0.0210, -0.8577, -0.1344, 0.1470, -0.0038, 0.8943, 664942, 0.0443, -0.3127, -0.1035, -0.0338, -0.0981, 0.1108, 0.0711, 168, 156
8.3880, -0.1003, -1.4858, 0.1723, 0.0970, -0.0035, 0.8943, 664982, 0.0443, -0.3127, -0.1035, -0.0338, -0.0983, 0.1108, 0.0222, 162, 160
8.4040, -0.1003, -1.4858, 0.1723, 0.0970, -0.0035, 0.8943, 664982, 0.0444, -0.3127, -0.1034, -0.0338, -0.0979, 0.1108, 0.0222, 162, 160
8.4350, -0.1387, -0.7144, -0.3145, 0.0550, -0.0019, 0.8950, 665022, 0.0443, -0.3127, -0.1035, -0.0339, -0.0982, 0.1108, -0.0271, 160, 162
8.4510, 0.0164, -1.6267, 0.0473, 0.0325, -0.0019, 0.8952, 665042, 0.0444, -0.3127, -0.1034, -0.0339, -0.0981, 0.1108, -0.0517, 161, 160
8.4660, 0.0164, -1.6267, 0.0473, 0.0325, -0.0019, 0.8952, 665042, 0.0443, -0.3127, -0.1035, -0.0339, -0.0979, 0.1109, -0.0517, 161, 160
8.4980, -0.2489, -0.8942, -0.2658, -0.0265, -0.0014, 0.8964, 665082, 0.0443, -0.3127, -0.1035, -0.0339, -0.0981, 0.1109, -0.1000, 176, 144
8.5130, 0.0984, -1.0883, -0.3005, -0.0524, -0.0021, 0.8959, 665102, 0.0444, -0.3126, -0.1034, -0.0338, -0.0979, 0.1109, -0.1237, 156, 166
8.5290, 0.0984, -1.0883, -0.3005, -0.0524, -0.0021, 0.8959, 665102, 0.0443, -0.3128, -0.1035, -0.0339, -0.0981, 0.1108, -0.1237, 156, 166
8.5450, 0.0984, -1.0883, -0.3005, -0.0524, -0.0021, 0.8959, 665102, 0.0444, -0.3127, -0.1034, -0.0339, -0.0981, 0.1108, -0.1237, 156, 166
8.5760, -0.4231, -0.9187, 0.0597, -0.0927, -0.0037, 0.8966, 665142, 0.0443, -0.3127, -0.1035, -0.0338, -0.0980, 0.1108, -0.1695, 161, 161
8.5910, 0.5894, -1.7895, -0.0616, -0.1412, -0.0030, 0.8961, 665182, 0.0443, -0.3127, -0.1034, -0.0339, -0.0982, 0.1107, -0.2125, 167, 156
8.6070, 0.5894, -1.7895, -0.0616, -0.1412, -0.0030, 0.8961, 665182, 0.0443, -0.3127, -0.1034, -0.0339, -0.0981, 0.1108, -0.2125, 167, 156
8.6230, -0.4075, -1.3676, 0.1113, -0.1719, -0.0037, 0.8966, 665202, 0.0443, -0.3127, -0.1034, -0.0338, -0.0982, 0.1107, -0.2328, 175, 149
8.6540, 0.1890, -0.7512, -0.1634, -0.2222, -0.0037, 0.8969, 665242, 0.0444, -0.3127, -0.1034, -0.0339, -0.0981, 0.1107, -0.2706, 165, 161
8.6700, 0.1890, -0.7512, -0.1634, -0.2222, -0.0037, 0.8969, 665242, 0.0443, -0.3127, -0.1035, -0.0339, -0.0980, 0.1108, -0.2706, 165, 161
8.6850, -0.0293, -0.8367, -0.0629, -0.2386, -0.0037, 0.8969, 665262, 0.0443, -0.3127, -0.1034, -0.0338, -0.0983, 0.1108, -0.2880, 161, 166
8.7160, -0.2863, -0.2852, -0.1419, -0.2667, -0.0044, 0.8983, 665302, 0.0444, -0.3127, -0.1034, -0.0338, -0.0980, 0.1108, -0.3191, 162, 166
8.7320, -0.2863, -0.2852, -0.1419, -0.2667, -0.0044, 0.8983, 665302, 0.0443, -0.3127, -0.1035, -0.0339, -0.0982, 0.1108, -0.3191, 162, 166
8.7480, 0.3634, -1.1708, 0.1008, -0.3040, -0.0044, 0.8985, 665342, 0.0443, -0.3127, -0.1034, -0.0339, -0.0981, 0.1108, -0.3453, 176, 154
8.7630, 0.3634, -1.1708, 0.1008, -0.3040, -0.0044, 0.8985, 665342, 0.0443, -0.3127, -0.1035, -0.0339, -0.0979, 0.1108, -0.3453, 176, 154
8.7950, -0.1602, -1.1660, 0.0648, -0.3236, -0.0049, 0.8988, 665362, 0.0443, -0.3127, -0.1034, -0.0338, -0.0983, 0.1108, -0.3564, 176, 155
8.8100, -0.0481, -0.5252, -0.1820, -0.3583, -0.0047, 0.8990, 665402, 0.0444, -0.3127, -0.1035, -0.0338, -0.0981, 0.1109, -0.3742, 173, 161
8.8260, -0.0481, -0.5252, -0.1820, -0.3583, -0.0047, 0.8990, 665402, 0.0444, -0.3127, -0.1034, -0.0339, -0.0980, 0.1107, -0.3742, 173, 161
8.8570, -0.1164, -0.8684, 0.2441, -0.3707, -0.0054, 0.8995, 665422, 0.0443, -0.3127, -0.1034, -0.0339, -0.0982, 0.1108, -0.3810, 175, 159
8.8730, -0.1400, -0.0132, -0.2860, -0.3889, -0.0051, 0.9008, 665462, 0.0443, -0.3126, -0.1034, -0.0338, -0.0981, 0.1107, -0.3899, 168, 169
8.8880, -0.1400, -0.0132, -0.2860, -0.3889, -0.0051, 0.9008, 665462, 0.0444, -0.3127, -0.1034, -0.0338, -0.0980, 0.1107, -0.3899, 168, 169
8.9040, -0.2986, -0.2836, 0.0812, -0.4021, -0.0056, 0.9015, 665502, 0.0444, -0.3127, -0.1035, -0.0339, -0.0981, 0.1109, -0.3927, 179, 157
8.9350, -0.1588, -0.0672, -0.1269, -0.4086, -0.0061, 0.9013, 665522, 0.0444, -0.3127, -0.1034, -0.0338, -0.0979, 0.1108, -0.3918, 178, 160
8.9510, -0.1588, -0.0672, -0.1269, -0.4086, -0.0061, 0.9013, 665522, 0.0443, -0.3127, -0.1035, -0.0339, -0.0980, 0.1108, -0.3918, 178, 160
8.9660, 0.0161, -0.4924, 0.1707, -0.4173, -0.0054, 0.9018, 665562, 0.0443, -0.3127, -0.1035, -0.0339, -0.0982, 0.1108, -0.3853, 181, 156
8.9980, 0.0355, -0.2613, 0.2043, -0.4217, -0.0063, 0.9030, 665582, 0.0444, -0.3127, -0.1034, -0.0338, -0.0981, 0.1108, -0.3797, 185, 153
9.0130, 0.0355, -0.2613, 0.2043, -0.4217, -0.0063, 0.9030, 665582, 0.0443, -0.3127, -0.1035, -0.0339, -0.0982, 0.1108, -0.3797, 185, 153
9.0290, 0.1779, 0.2602, 0.1879, -0.4201, -0.0054, 0.9027, 665622, 0.0444, -0.3127, -0.1034, -0.0339, -0.0980, 0.1107, -0.3642, 177, 161
9.0440, 0.1779, 0.2602, 0.1879, -0.4201, -0.0054, 0.9027, 665622, 0.0443, -0.3127, -0.1035, -0.0339, -0.0980, 0.1108, -0.3642, 177, 161
9.0760, -0.2903, 0.6271, -0.0578, -0.4053, -0.0072, 0.9036, 665662, 0.0443, -0.3127, -0.1034, -0.0338, -0.0982, 0.1108, -0.3429, 178, 159
9.0910, 0.2145, 0.6445, -0.1631, -0.3971, -0.0068, 0.9037, 665682, 0.0444, -0.3127, -0.1035, -0.0338, -0.0980, 0.1108, -0.3302, 175, 162
9.1070, 0.2145, 0.6445, -0.1631, -0.3971, -0.0068, 0.9037, 665682, 0.0443, -0.3128, -0.1035, -0.0339, -0.0981, 0.1108, -0.3302, 175, 162
9.1230, 0.1266, 0.6859, 0.1941, -0.3789, -0.0075, 0.9039, 665722, 0.0443, -0.3126, -0.1034, -0.0339, -0.0981, 0.1108, -0.3010, 178, 157
9.1540, 0.0702, 0.9762, -0.2416, -0.3669, -0.0068, 0.9039, 665742, 0.0443, -0.3127, -0.1035, -0.0339, -0.0980, 0.1108, -0.2846, 177, 157
9.1690, 0.0702, 0.9762, -0.2416, -0.3669, -0.0068, 0.9039, 665742, 0.0443, -0.3127, -0.1034, -0.0339, -0.0982, 0.1108, -0.2846, 177, 157
9.1850, 0.2088, 0.3295, 0.2481, -0.3388, -0.0072, 0.9041, 665782, 0.0444, -0.3127, -0.1034, -0.0338, -0.0980, 0.1108, -0.2484, 182, 149
9.2160, -0.4311, 0.9660, 0.0215, -0.3220, -0.0084, 0.9043, 665802, 0.0443, -0.3127, -0.1035, -0.0339, -0.0981, 0.1108, -0.2288, 177, 154
9.2320, -0.4311, 0.9660, 0.0215, -0.3220, -0.0084, 0.9043, 665802, 0.0443, -0.3127, -0.1034, -0.0339, -0.0980, 0.1107, -0.2288, 177, 154
9.2480, 0.3715, 1.0060, -0.0895, -0.3051, -0.0086, 0.9044, 665822, 0.0443, -0.3127, -0.1034, -0.0338, -0.0980, 0.1107, -0.2083, 172, 158
9.2630, 0.3715, 1.0060, -0.0895, -0.3051, -0.0086, 0.9044, 665822, 0.0444, -0.3127, -0.1035, -0.0339, -0.0982, 0.1108, -0.2083, 172, 158
9.2940, -0.1967, 0.8214, 0.2647, -0.2697, -0.0103, 0.9050, 665862, 0.0444, -0.3127, -0.1034, -0.0338, -0.0978, 0.1109, -0.1650, 179, 148
9.3100, -0.0621, 1.4673, -0.2408, -0.2169, -0.0106, 0.9053, 665902, 0.0442, -0.3127, -0.1035, -0.0338, -0.0983, 0.1107, -0.1190, 163, 163
9.3260, -0.0621, 1.4673, -0.2408, -0.2169, -0.0106, 0.9053, 665902, 0.0443, -0.3126, -0.1034, -0.0338, -0.0980, 0.1109, -0.1190, 163, 163
9.3570, 0.4604, 1.2549, 0.1758, -0.1890, -0.0105, 0.9058, 665922, 0.0443, -0.3127, -0.1034, -0.0338, -0.0981, 0.1107, -0.0953, 161, 164
9.3730, -0.1669, 1.0797, 0.0659, -0.1627, -0.0103, 0.9060, 665942, 0.0443, -0.3127, -0.1035, -0.0338, -0.0982, 0.1108, -0.0711, 167, 156
9.3880, -0.1669, 1.0797, 0.0659, -0.1627, -0.0103, 0.9060, 665942, 0.0444, -0.3127, -0.1034, -0.0339, -0.0980, 0.1109, -0.0711, 167, 156
9.4040, -0.1669, 1.0797, 0.0659, -0.1627, -0.0103, 0.9060, 665942, 0.0443, -0.3127, -0.1034, -0.0338, -0.0981, 0.1107, -0.0711, 167, 156
9.4350, -0.0492, 0.9491, 0.1857, -0.0759, -0.0115, 0.9050, 666022, 0.0443, -0.3127, -0.1034, -0.0339, -0.0981, 0.1108, 0.0271, 172, 149
9.4510, -0.0492, 0.9491, 0.1857, -0.0759, -0.0115, 0.9050, 666022, 0.0443, -0.3127, -0.1034, -0.0339, -0.0980, 0.1107, 0.0271, 172, 149
9.4660, -0.0887, 1.8723, -0.1387, -0.0202, -0.0127, 0.9041, 666062, 0.0443, -0.3127, -0.1034, -0.0339, -0.0981, 0.1107, 0.0760, 155, 167
9.4970, 0.3854, 0.9061, 0.3150, 0.0086, -0.0124, 0.9041, 666082, 0.0444, -0.3127, -0.1034, -0.0339, -0.0981, 0.1108, 0.1000, 162, 160
9.5130, 0.3854, 0.9061, 0.3150, 0.0086, -0.0124, 0.9041, 666082, 0.0443, -0.3127, -0.1034, -0.0338, -0.0981, 0.1106, 0.1000, 162, 160
9.5290, -0.2013, 1.2267, -0.2524, 0.0538, -0.0127, 0.9034, 666122, 0.0443, -0.3127, -0.1035, -0.0339, -0.0980, 0.1108, 0.1469, 165, 157
9.5440, -0.2013, 1.2267, -0.2524, 0.0538, -0.0127, 0.9034, 666122, 0.0444, -0.3127, -0.1034, -0.0340, -0.0981, 0.1106, 0.1469, 165, 157
9.5760, 0.2588, 0.9918, 0.1822, 0.0737, -0.0120, 0.9036, 666142, 0.0443, -0.3127, -0.1035, -0.0338, -0.0981, 0.1109, 0.1695, 165, 157
9.5910, -0.2158, 1.4106, -0.0091, 0.1203, -0.0120, 0.9032, 666182, 0.0443, -0.3127, -0.1034, -0.0338, -0.0982, 0.1108, 0.2125, 161, 162
9.6070, -0.2158, 1.4106, -0.0091, 0.1203, -0.0120, 0.9032, 666182, 0.0443, -0.3127, -0.1035, -0.0339, -0.0982, 0.1107, 0.2125, 161, 162
9.6220, -0.0513, 1.2455, 0.0199, 0.1684, -0.0110, 0.9023, 666222, 0.0443, -0.3127, -0.1034, -0.0339, -0.0981, 0.1108, 0.2522, 158, 166
9.6540, 0.0508, 0.8983, 0.2102, 0.1930, -0.0108, 0.9025, 666242, 0.0444, -0.3127, -0.1034, -0.0339, -0.0982, 0.1107, 0.2706, 165, 160
9.6690, 0.0508, 0.8983, 0.2102, 0.1930, -0.0108, 0.9025, 666242, 0.0443, -0.3128, -0.1035, -0.0339, -0.0981, 0.1108, 0.2706, 165, 160
9.6850, -0.1513, 1.2334, -0.0196, 0.2374, -0.0119, 0.9016, 666282, 0.0443, -0.3127, -0.1035, -0.0339, -0.0982, 0.1108, 0.3041, 157, 169
9.7160, 0.2475, 0.5244, 0.3569, 0.2571, -0.0106, 0.9023, 666302, 0.0443, -0.3127, -0.1034, -0.0338, -0.0981, 0.1108, 0.3191, 168, 159
9.7320, 0.2475, 0.5244, 0.3569, 0.2571, -0.0106, 0.9023, 666302, 0.0443, -0.3127, -0.1034, -0.0338, -0.0981, 0.1107, 0.3191, 168, 159
9.7470, -0.0411, 1.1154, -0.2269, 0.2971, -0.0119, 0.9018, 666342, 0.0443, -0.3127, -0.1034, -0.0339, -0.0982, 0.1107, 0.3453, 155, 175
9.7630, -0.0411, 1.1154, -0.2269, 0.2971, -0.0119, 0.9018, 666342, 0.0444, -0.3127, -0.1034, -0.0339, -0.0980, 0.1108, 0.3453, 155, 175
9.7940, -0.0640, 0.7176, -0.0527, 0.3241, -0.0105, 0.9025, 666382, 0.0443, -0.3127, -0.1034, -0.0339, -0.0983, 0.1107, 0.3660, 169, 163
9.8100, -0.0398, 0.6711, -0.2309, 0.3349, -0.0117, 0.9018, 666402, 0.0444, -0.3126, -0.1034, -0.0337, -0.0979, 0.1108, 0.3742, 164, 169
9.8260, -0.0398, 0.6711, -0.2309, 0.3349, -0.0117, 0.9018, 666402, 0.0443, -0.3127, -0.1034, -0.0339, -0.0981, 0.1107, 0.3742, 164, 169
9.8570, -0.3997, 0.7273, 0.0710, 0.3609, -0.0113, 0.9020, 666442, 0.0443, -0.3127, -0.1035, -0.0339, -0.0981, 0.1108, 0.3862, 166, 168
9.8720, -0.0183, 0.5015, -0.0578, 0.3744, -0.0113, 0.9020, 666462, 0.0443, -0.3127, -0.1034, -0.0339, -0.0981, 0.1108, 0.3899, 163, 172
9.8880, -0.0183, 0.5015, -0.0578, 0.3744, -0.0113, 0.9020, 666462, 0.0443, -0.3127, -0.1035, -0.0338, -0.0981, 0.1107, 0.3899, 163, 172
9.9040, -0.1382, 0.2295, 0.0804, 0.3924, -0.0101, 0.9023, 666502, 0.0443, -0.3126, -0.1034, -0.0338, -0.0981, 0.1107, 0.3927, 164, 173
9.9350, -0.1102, 0.2027, 0.0059, 0.3995, -0.0101, 0.9023, 666522, 0.0443, -0.3127, -0.1034, -0.0338, -0.0982, 0.1108, 0.3918, 166, 171
9.9500, -0.1102, 0.2027, 0.0059, 0.3995, -0.0101, 0.9023, 666522, 0.0444, -0.3127, -0.1034, -0.0339, -0.0981, 0.1107, 0.3918, 166, 171
9.9660, 0.2384, 0.6031, -0.1911, 0.4070, -0.0096, 0.9018, 666542, 0.0444, -0.3127, -0.1034, -0.0338, -0.0980, 0.1107, 0.3893, 152, 184
9.9970, -0.1032, 0.0575, 0.0742, 0.4143, -0.0099, 0.9018, 666582, 0.0442, -0.3127, -0.1035, -0.0338, -0.0982, 0.1108, 0.3797, 159, 179
10.0130, -0.1032, 0.0575, 0.0742, 0.4143, -0.0099, 0.9018, 666582, 0.0444, -0.3126, -0.1034, -0.0339, -0.0980, 0.1107, 0.3797, 159, 179
10.0290, -0.1521, -0.3860, -0.0484, 0.4124, -0.0089, 0.9009, 666622, 0.0443, -0.3127, -0.1035, -0.0338, -0.0981, 0.1108, 0.3642, 162, 176
10.0440, -0.1521, -0.3860, -0.0484, 0.4124, -0.0089, 0.9009, 666622, 0.0443, -0.3127, -0.1035, -0.0339, -0.0982, 0.1108, 0.3642, 162, 176
10.0750, 0.1008, -0.7219, 0.1847, 0.4040, -0.0087, 0.9015, 666642, 0.0443, -0.3127, -0.1034, -0.0338, -0.0981, 0.1108, 0.3543, 166, 172
10.0910, -0.1236, -0.2685, -0.2309, 0.3887, -0.0082, 0.9013, 666682, 0.0443, -0.3127, -0.1035, -0.0339, -0.0981, 0.1107, 0.3302, 157, 179
10.1070, -0.1236, -0.2685, -0.2309, 0.3887, -0.0082, 0.9013, 666682, 0.0444, -0.3127, -0.1034, -0.0339, -0.0980, 0.1108, 0.3302, 157, 179
10.1380, 0.0188, -0.7862, 0.3231, 0.3794, -0.0084, 0.9016, 666702, 0.0444, -0.3127, -0.1034, -0.0338, -0.0981, 0.1108, 0.3162, 164, 172
10.1540, -0.2169, -0.3002, -0.2072, 0.3608, -0.0087, 0.9016, 666742, 0.0443, -0.3127, -0.1035, -0.0339, -0.0981, 0.1108, 0.2846, 153, 180
10.1690, -0.2169, -0.3002, -0.2072, 0.3608, -0.0087, 0.9016, 666742, 0.0443, -0.3127, -0.1034, -0.0339, -0.0981, 0.1108, 0.2846, 153, 180
10.1850, 0.1282, -1.1990, 0.2341, 0.3451, -0.0086, 0.9016, 666762, 0.0443, -0.3127, -0.1034, -0.0339, -0.0980, 0.1107, 0.2670, 166, 167
10.2160, -0.2223, -0.5693, -0.3290, 0.3042, -0.0096, 0.9022, 666802, 0.0443, -0.3127, -0.1034, -0.0339, -0.0981, 0.1107, 0.2288, 157, 173
10.2320, -0.2223, -0.5693, -0.3290, 0.3042, -0.0096, 0.9022, 666802, 0.0444, -0.3127, -0.1034, -0.0338, -0.0980, 0.1107, 0.2288, 157, 173
10.2470, 0.4671, -1.2584, 0.1699, 0.2635, -0.0073, 0.9036, 666842, 0.0443, -0.3127, -0.1035, -0.0339, -0.0980, 0.1108, 0.1870, 171, 157
10.2630, 0.4671, -1.2584, 0.1699, 0.2635, -0.0073, 0.9036, 666842, 0.0443, -0.3126, -0.1034, -0.0338, -0.0981, 0.1108, 0.1870, 171, 157
10.2940, -0.4550, -0.7120, -0.2403, 0.2450, -0.0075, 0.9036, 666862, 0.0443, -0.3127, -0.1035, -0.0338, -0.0982, 0.1108, 0.1650, 159, 168
10.3100, 0.2666, -1.5780, 0.0153, 0.2192, -0.0072, 0.9029, 666882, 0.0443, -0.3127, -0.1034, -0.0339, -0.0982, 0.1108, 0.1422, 168, 158
10.3250, 0.2666, -1.5780, 0.0153, 0.2192, -0.0072, 0.9029, 666882, 0.0444, -0.3127, -0.1034, -0.0338, -0.0980, 0.1109, 0.1422, 168, 158
10.3570, -0.4075, -1.4829, -0.0957, 0.1560, -0.0065, 0.9039, 666922, 0.0443, -0.3127, -0.1035, -0.0338, -0.0982, 0.1108, 0.0953, 173, 150
10.3720, 0.2500, -0.9125, -0.1731, 0.1136, -0.0072, 0.9043, 666962, 0.0442, -0.3127, -0.1034, -0.0338, -0.0982, 0.1108, 0.0468, 156, 167
10.3880, 0.2500, -0.9125, -0.1731, 0.1136, -0.0072, 0.9043, 666962, 0.0444, -0.3127, -0.1034, -0.0338, -0.0980, 0.1108, 0.0468, 156, 167
10.4040, -0.2736, -1.3646, 0.1478, 0.0946, -0.0072, 0.9048, 666982, 0.0444, -0.3127, -0.1034, -0.0338, -0.0982, 0.1108, 0.0222, 163, 160
10.4350, 0.1220, -1.1343, -0.2105, 0.0400, -0.0075, 0.9051, 667022, 0.0444, -0.3127, -0.1035, -0.0339, -0.0981, 0.1109, -0.0271, 164, 157
10.4500, 0.1220, -1.1343, -0.2105, 0.0400, -0.0075, 0.9051, 667022, 0.0443, -0.3127, -0.1034, -0.0339, -0.0979, 0.1108, -0.0271, 164, 157
10.4660, -0.1360, -1.1724, 0.2043, -0.0113, -0.0066, 0.9057, 667062, 0.0443, -0.3126, -0.1034, -0.0338, -0.0983, 0.1107, -0.0760, 165, 157
10.4970, -0.0269, -1.2149, 0.0884, -0.0307, -0.0059, 0.9063, 667082, 0.0444, -0.3127, -0.1035, -0.0338, -0.0980, 0.1109, -0.1000, 165, 156
10.5130, -0.0269, -1.2149, 0.0884, -0.0307, -0.0059, 0.9063, 667082, 0.0444, -0.3127, -0.1034, -0.0339, -0.0981, 0.1108, -0.1000, 165, 156
10.5280, 0.1908, -1.7659, -0.0078, -0.0813, -0.0065, 0.9053, 667122, 0.0443, -0.3127, -0.1035, -0.0339, -0.0981, 0.1108, -0.1469, 177, 144
10.5440, 0.1908, -1.7659, -0.0078, -0.0813, -0.0065, 0.9053, 667122, 0.0443, -0.3126, -0.1034, -0.0337, -0.0981, 0.1106, -0.1469, 177, 144
10.5750, 0.3655, -1.6175, 0.2416, -0.1110, -0.0063, 0.9060, 667142, 0.0444, -0.3127, -0.1034, -0.0339, -0.0981, 0.1107, -0.1695, 172, 150
10.5910, 0.1744, -0.9708, -0.0903, -0.1552, -0.0061, 0.9063, 667182, 0.0444, -0.3127, -0.1034, -0.0339, -0.0980, 0.1108, -0.2125, 169, 154
10.6070, 0.1744, -0.9708, -0.0903, -0.1552, -0.0061, 0.9063, 667182, 0.0444, -0.3127, -0.1034, -0.0339, -0.0981, 0.1108, -0.2125, 169, 154
10.6380, -0.1720, -1.1759, 0.0922, -0.1927, -0.0068, 0.9065, 667222, 0.0443, -0.3127, -0.1035, -0.0339, -0.0980, 0.1108, -0.2522, 165, 160
10.6530, 0.1728, -1.6076, 0.2701, -0.2149, -0.0066, 0.9076, 667242, 0.0443, -0.3126, -0.1034, -0.0338, -0.0980, 0.1107, -0.2706, 177, 147
10.6690, 0.1728, -1.6076, 0.2701, -0.2149, -0.0066, 0.9076, 667242, 0.0443, -0.3127, -0.1035, -0.0339, -0.0981, 0.1107, -0.2706, 177, 147
10.6850, -0.0917, -0.8493, -0.3059, -0.2616, -0.0072, 0.9079, 667282, 0.0444, -0.3127, -0.1034, -0.0339, -0.0981, 0.1108, -0.3041, 169, 159
10.7160, 0.1051, -1.2479, 0.3341, -0.2845, -0.0072, 0.9081, 667302, 0.0443, -0.3127, -0.1034, -0.0339, -0.0981, 0.1108, -0.3191, 176, 152
10.7320, 0.1051, -1.2479, 0.3341, -0.2845, -0.0072, 0.9081, 667302, 0.0443, -0.3127, -0.1035, -0.0339, -0.0982, 0.1108, -0.3191, 176, 152
10.7470, 0.0290, -0.8112, -0.0962, -0.3183, -0.0073, 0.9081, 667342, 0.0443, -0.3126, -0.1034, -0.0338, -0.0980, 0.1107, -0.3453, 172, 159
10.7630, 0.0290, -0.8112, -0.0962, -0.3183, -0.0073, 0.9081, 667342, 0.0444, -0.3127, -0.1035, -0.0339, -0.0982, 0.1108, -0.3453, 172, 159
10.7940, -0.2368, -0.9407, 0.1236, -0.3484, -0.0056, 0.9083, 667382, 0.0443, -0.3127, -0.1034, -0.0339, -0.0981, 0.1108, -0.3660, 175, 158
10.8100, -0.0400, -0.4002, 0.0169, -0.3630, -0.0068, 0.9091, 667402, 0.0444, -0.3127, -0.1035, -0.0338, -0.0980, 0.1108, -0.3742, 177, 157
10.8250, -0.0400, -0.4002, 0.0169, -0.3630, -0.0068, 0.9091, 667402, 0.0443, -0.3127, -0.1034, -0.0338, -0.0982, 0.1107, -0.3742, 177, 157
10.8570, -0.0159, -0.5757, 0.2766, -0.3848, -0.0061, 0.9090, 667442, 0.0443, -0.3126, -0.1034, -0.0338, -0.0981, 0.1108, -0.3862, 173, 162
10.8720, 0.0126, -0.7230, 0.2306, -0.3950, -0.0063, 0.9098, 667462, 0.0443, -0.3128, -0.1035, -0.0339, -0.0982, 0.1107, -0.3899, 185, 150
10.8880, 0.0126, -0.7230, 0.2306, -0.3950, -0.0063, 0.9098, 667462, 0.0444, -0.3127, -0.1034, -0.0339, -0.0981, 0.1108, -0.3899, 185, 150
10.9030, -0.4548, -0.1180, -0.1508, -0.4021, -0.0063, 0.9098, 667482, 0.0443, -0.3127, -0.1034, -0.0338, -0.0980, 0.1108, -0.3921, 174, 164
10.9350, -0.1290, -0.5123, 0.1129, -0.4192, -0.0054, 0.9100, 667522, 0.0443, -0.3127, -0.1034, -0.0338, -0.0981, 0.1107, -0.3918, 185, 152
10.9500, -0.1290, -0.5123, 0.1129, -0.4192, -0.0054, 0.9100, 667522, 0.0444, -0.3127, -0.1034, -0.0339, -0.0980, 0.1107, -0.3918, 185, 152
10.9660, -0.1559, -0.2010, 0.0231, -0.4257, -0.0059, 0.9107, 667542, 0.0444, -0.3128, -0.1035, -0.0339, -0.0980, 0.1108, -0.3893, 188, 150
10.9970, -0.1027, 0.2115, 0.0753, -0.4330, -0.0049, 0.9104, 667582, 0.0443, -0.3127, -0.1034, -0.0339, -0.0982, 0.1107, -0.3797, 180, 160
11.0130, -0.1027, 0.2115, 0.0753, -0.4330, -0.0049, 0.9104, 667582, 0.0444, -0.3127, -0.1035, -0.0338, -0.0978, 0.1109, -0.3797, 180, 160
11.0280, -0.2618, 0.5101, -0.0500, -0.4288, -0.0063, 0.9121, 667622, 0.0443, -0.3127, -0.1034, -0.0339, -0.0982, 0.1107, -0.3642, 184, 155
11.0440, -0.2618, 0.5101, -0.0500, -0.4288, -0.0063, 0.9121, 667622, 0.0443, -0.3127, -0.1034, -0.0338, -0.0981, 0.1108, -0.3642, 184, 155
11.0750, 0.1535, 0.3586, -0.1422, -0.4236, -0.0066, 0.9121, 667642, 0.0444, -0.3128, -0.1035, -0.0339, -0.0980, 0.1107, -0.3543, 179, 160
11.0910, -0.3104, 0.0554, 0.1707, -0.4133, -0.0075, 0.9135, 667682, 0.0443, -0.3127, -0.1034, -0.0339, -0.0981, 0.1108, -0.3302, 189, 147
11.1060, -0.3104, 0.0554, 0.1707, -0.4133, -0.0075, 0.9135, 667682, 0.0443, -0.3127, -0.1035, -0.0339, -0.0980, 0.1107, -0.3302, 189, 147
11.1380, 0.1809, 0.4365, 0.0298, -0.4070, -0.0075, 0.9142, 667702, 0.0443, -0.3127, -0.1034, -0.0338, -0.0981, 0.1108, -0.3162, 189, 147
11.1530, -0.0140, 0.9899, 0.1137, -0.3828, -0.0072, 0.9139, 667742, 0.0443, -0.3127, -0.1034, -0.0338, -0.0982, 0.1108, -0.2846, 173, 163
11.1690, -0.0140, 0.9899, 0.1137, -0.3828, -0.0072, 0.9139, 667742, 0.0444, -0.3127, -0.1034, -0.0338, -0.0980, 0.1107, -0.2846, 173, 163
11.1850, 0.0067, 1.0800, -0.0188, -0.3375, -0.0080, 0.9149, 667782, 0.0443, -0.3127, -0.1034, -0.0337, -0.0982, 0.1108, -0.2484, 173, 159
11.2160, 0.4126, 1.2289, -0.0822, -0.3154, -0.0082, 0.9151, 667802, 0.0443, -0.3127, -0.1035, -0.0339, -0.0981, 0.1108, -0.2288, 168, 163
11.2310, 0.4126, 1.2289, -0.0822, -0.3154, -0.0082, 0.9151, 667802, 0.0443, -0.3127, -0.1034, -0.0339, -0.0981, 0.1107, -0.2288, 168, 163
11.2470, 0.0788, 0.8346, 0.2193, -0.2683, -0.0084, 0.9151, 667842, 0.0443, -0.3127, -0.1034, -0.0339, -0.0982, 0.1107, -0.1870, 170, 158
11.2780, -0.0449, 1.2485, -0.1513, -0.2466, -0.0082, 0.9156, 667862, 0.0443, -0.3127, -0.1034, -0.0338, -0.0982, 0.1107, -0.1650, 169, 158
11.2940, -0.0449, 1.2485, -0.1513, -0.2466, -0.0082, 0.9156, 667862, 0.0443, -0.3127, -0.1035, -0.0338, -0.0982, 0.1108, -0.1650, 169, 158
11.3100, 0.4268, 0.7467, 0.3328, -0.2037, -0.0086, 0.9158, 667902, 0.0443, -0.3127, -0.1034, -0.0338, -0.0982, 0.1107, -0.1190, 162, 163
11.3250, 0.4268, 0.7467, 0.3328, -0.2037, -0.0086, 0.9158, 667902, 0.0444, -0.3127, -0.1034, -0.0338, -0.0981, 0.1108, -0.1190, 162, 163
11.3560, -0.0323, 1.0716, -0.1892, -0.1656, -0.0113, 0.9156, 667942, 0.0444, -0.3127, -0.1035, -0.0339, -0.0981, 0.1107, -0.0711, 167, 157
11.3720, 0.3744, 0.9722, -0.0008, -0.1466, -0.0101, 0.9156, 667962, 0.0443, -0.3127, -0.1034, -0.0339, -0.0981, 0.1108, -0.0468, 170, 154
11.3880, 0.3744, 0.9722, -0.0008, -0.1466, -0.0101, 0.9156, 667962, 0.0443, -0.3127, -0.1034, -0.0339, -0.0981, 0.1107, -0.0468, 170, 154
11.4030, 0.1820, 0.9977, 0.1102, -0.1025, -0.0098, 0.9163, 668002, 0.0443, -0.3127, -0.1034, -0.0338, -0.0983, 0.1108, 0.0025, 171, 151
11.4350, 0.1392, 1.4839, -0.2494, -0.0752, -0.0094, 0.9159, 668022, 0.0443, -0.3127, -0.1034, -0.0338, -0.0980, 0.1109, 0.0271, 158, 164
11.4500, 0.1392, 1.4839, -0.2494, -0.0752, -0.0094, 0.9159, 668022, 0.0443, -0.3127, -0.1035, -0.0339, -0.0981, 0.1108, 0.0271, 158, 164
11.4660, 0.3672, 0.8453, 0.3094, -0.0229, -0.0096, 0.9173, 668062, 0.0443, -0.3126, -0.1034, -0.0338, -0.0981, 0.1107, 0.0760, 172, 149
11.4970, -0.0005, 1.3393, -0.1287, 0.0257, -0.0096, 0.9173, 668102, 0.0443, -0.3127, -0.1035, -0.0339, -0.0980, 0.1107, 0.1237, 162, 160
11.5130, -0.0005, 1.3393, -0.1287, 0.0257, -0.0096, 0.9173, 668102, 0.0443, -0.3127, -0.1034, -0.0339, -0.0982, 0.1107, 0.1237, 162, 160
11.5280, 0.3142, 1.0802, 0.1239, 0.0480, -0.0094, 0.9177, 668122, 0.0443, -0.3127, -0.1034, -0.0338, -0.0980, 0.1108, 0.1469, 166, 156
11.5440, 0.3142, 1.0802, 0.1239, 0.0480, -0.0094, 0.9177, 668122, 0.0443, -0.3127, -0.1035, -0.0338, -0.0982, 0.1107, 0.1469, 166, 156
11.5750, -0.3357, 1.1509, 0.0578, 0.0717, -0.0091, 0.9179, 668142, 0.0443, -0.3126, -0.1034, -0.0338, -0.0982, 0.1108, 0.1695, 166, 155
11.5910, 0.1634, 1.6130, -0.2451, 0.1250, -0.0080, 0.9180, 668182, 0.0443, -0.3127, -0.1035, -0.0339, -0.0980, 0.1109, 0.2125, 157, 165
11.6060, 0.1634, 1.6130, -0.2451, 0.1250, -0.0080, 0.9180, 668182, 0.0443, -0.3127, -0.1034, -0.0338, -0.0982, 0.1107, 0.2125, 157, 165
11.6380, -0.0516, 1.0335, 0.1908, 0.1501, -0.0082, 0.9177, 668202, 0.0444, -0.3127, -0.1034, -0.0339, -0.0979, 0.1109, 0.2328, 161, 162
11.6530, 0.0597, 1.2025, -0.2508, 0.1944, -0.0084, 0.9173, 668242, 0.0443, -0.3127, -0.1035, -0.0339, -0.0981, 0.1106, 0.2706, 163, 162
11.6690, 0.0597, 1.2025, -0.2508, 0.1944, -0.0084, 0.9173, 668242, 0.0444, -0.3127, -0.1034, -0.0339, -0.0981, 0.1108, 0.2706, 163, 162
11.6840, -0.0546, 1.2119, -0.0583, 0.2169, -0.0089, 0.9170, 668262, 0.0443, -0.3127, -0.1034, -0.0338, -0.0980, 0.1107, 0.2880, 159, 167
11.7160, -0.4042, 1.1885, -0.0820, 0.2559, -0.0084, 0.9177, 668302, 0.0443, -0.3127, -0.1034, -0.0338, -0.0982, 0.1107, 0.3191, 162, 166
11.7310, -0.4042, 1.1885, -0.0820, 0.2559, -0.0084, 0.9177, 668302, 0.0444, -0.3127, -0.1035, -0.0337, -0.0980, 0.1109, 0.3191, 162, 166
11.7470, 0.3352, 0.7319, 0.1502, 0.2929, -0.0080, 0.9177, 668342, 0.0444, -0.3127, -0.1034, -0.0339, -0.0980, 0.1106, 0.3453, 166, 164
11.7780, -0.3938, 1.0370, 0.0602, 0.3108, -0.0072, 0.9177, 668362, 0.0444, -0.3127, -0.1034, -0.0338, -0.0980, 0.1108, 0.3564, 164, 167
11.7940, -0.3938, 1.0370, 0.0602, 0.3108, -0.0072, 0.9177, 668362, 0.0444, -0.3127, -0.1034, -0.0338, -0.0979, 0.1107, 0.3564, 164, 167
11.8090, 0.2973, 0.9093, -0.1293, 0.3430, -0.0084, 0.9173, 668402, 0.0443, -0.3127, -0.1035, -0.0339, -0.0981, 0.1108, 0.3742, 158, 175
11.8250, 0.2973, 0.9093, -0.1293, 0.3430, -0.0084, 0.9173, 668402, 0.0444, -0.3127, -0.1034, -0.0339, -0.0981, 0.1107, 0.3742, 158, 175
11.8560, -0.1476, 0.5112, 0.1771, 0.3588, -0.0080, 0.9173, 668422, 0.0443, -0.3127, -0.1034, -0.0338, -0.0980, 0.1107, 0.3810, 160, 173
11.8720, 0.0097, 0.8327, 0.0546, 0.3735, -0.0082, 0.9175, 668442, 0.0443, -0.3127, -0.1035, -0.0339, -0.0981, 0.1108, 0.3862, 160, 175
11.8880, 0.0097, 0.8327, 0.0546, 0.3735, -0.0082, 0.9175, 668442, 0.0444, -0.3127, -0.1034, -0.0338, -0.0981, 0.1108, 0.3862, 160, 175
11.9190, -0.1250, 0.1465, 0.0782, 0.3955, -0.0075, 0.9161, 668482, 0.0443, -0.3127, -0.1034, -0.0339, -0.0981, 0.1107, 0.3921, 162, 174
11.9340, 0.1129, 0.5642, -0.1935, 0.4058, -0.0070, 0.9168, 668522, 0.0443, -0.3127, -0.1034, -0.0338, -0.0982, 0.1109, 0.3918, 160, 177
11.9500, 0.1129, 0.5642, -0.1935, 0.4058, -0.0070, 0.9168, 668522, 0.0443, -0.3127, -0.1034, -0.0338, -0.0980, 0.1107, 0.3918, 160, 177
11.9660, -0.1739, 0.4494, -0.1597, 0.4100, -0.0082, 0.9163, 668542, 0.0443, -0.3127, -0.1035, -0.0339, -0.0981, 0.1108, 0.3893, 155, 182
11.9970, 0.0113, 0.1387, -0.0202, 0.4192, -0.0077, 0.9173, 668582, 0.0444, -0.3127, -0.1034, -0.0339, -0.0980, 0.1108, 0.3797, 159, 180
12.0130, 0.0113, 0.1387, -0.0202, 0.4192, -0.0077, 0.9173, 668582, 0.0443, -0.3127, -0.1035, -0.0337, -0.0980, 0.1108, 0.3797, 159, 180
12.0280, -0.0710, -0.4854, 0.1623, 0.4191, -0.0086, 0.9163, 668622, 0.0442, -0.3127, -0.1034, -0.0338, -0.0982, 0.1108, 0.3642, 164, 175
12.0440, -0.0710, -0.4854, 0.1623, 0.4191, -0.0086, 0.9163, 668622, 0.0444, -0.3126, -0.1034, -0.0338, -0.0980, 0.1108, 0.3642, 164, 175
12.0750, 0.2169, -0.4986, 0.2250, 0.4136, -0.0079, 0.9168, 668642, 0.0443, -0.3127, -0.1034, -0.0339, -0.0980, 0.1107, 0.3543, 164, 175
12.0910, -0.0261, -0.4373, -0.0879, 0.4042, -0.0073, 0.9156, 668682, 0.0444, -0.3127, -0.1034, -0.0338, -0.0982, 0.1108, 0.3302, 149, 186
12.1060, -0.0261, -0.4373, -0.0879, 0.4042, -0.0073, 0.9156, 668682, 0.0443, -0.3127, -0.1035, -0.0338, -0.0980, 0.1109, 0.3302, 149, 186
12.1370, 0.1790, -0.9203, 0.2696, 0.3943, -0.0066, 0.9168, 668702, 0.0442, -0.3127, -0.1034, -0.0338, -0.0982, 0.1106, 0.3162, 165, 172
12.1530, -0.1814, -0.3924, -0.2105, 0.3698, -0.0061, 0.9159, 668742, 0.0443, -0.3127, -0.1034, -0.0339, -0.0980, 0.1108, 0.2846, 149, 184
12.1690, -0.1814, -0.3924, -0.2105, 0.3698, -0.0061, 0.9159, 668742, 0.0444, -0.3127, -0.1035, -0.0338, -0.0981, 0.1108, 0.2846, 149, 184
12.1840, 0.2051, -1.2512, 0.1134, 0.3372, -0.0045, 0.9172, 668782, 0.0443, -0.3127, -0.1034, -0.0338, -0.0982, 0.1108, 0.2484, 164, 168
12.2160, -0.1373, -0.5542, -0.3655, 0.3190, -0.0056, 0.9163, 668802, 0.0443, -0.3127, -0.1035, -0.0339, -0.0980, 0.1108, 0.2288, 151, 179
12.2310, -0.1373, -0.5542, -0.3655, 0.3190, -0.0056, 0.9163, 668802, 0.0442, -0.3127, -0.1035, -0.0338, -0.0983, 0.1108, 0.2288, 151, 179
12.2470, 0.1941, -1.3904, 0.1306, 0.2744, -0.0061, 0.9177, 668842, 0.0444, -0.3127, -0.1034, -0.0339, -0.0981, 0.1108, 0.1870, 164, 165
12.2780, -0.4276, -0.3080, -0.2868, 0.2545, -0.0068, 0.9179, 668862, 0.0444, -0.3127, -0.1035, -0.0338, -0.0981, 0.1108, 0.1650, 144, 182
12.2940, -0.4276, -0.3080, -0.2868, 0.2545, -0.0068, 0.9179, 668862, 0.0443, -0.3127, -0.1035, -0.0339, -0.0981, 0.1107, 0.1650, 144, 182
12.3090, 0.2080, -1.8167, 0.2782, 0.2073, -0.0054, 0.9180, 668902, 0.0443, -0.3127, -0.1034, -0.0338, -0.0981, 0.1108, 0.1190, 170, 155
12.3250, 0.2080, -1.8167, 0.2782, 0.2073, -0.0054, 0.9180, 668902, 0.0443, -0.3127, -0.1035, -0.0338, -0.0982, 0.1107, 0.1190, 170, 155
12.3560, -0.3155, -1.5079, -0.3040, 0.1429, -0.0066, 0.9177, 668942, 0.0444, -0.3127, -0.1034, -0.0338, -0.0980, 0.1108, 0.0711, 159, 164
12.3720, 0.1820, -1.2818, 0.1035, 0.1145, -0.0061, 0.9177, 668962, 0.0444, -0.3128, -0.1034, -0.0338, -0.0981, 0.1107, 0.0468, 167, 155
12.3870, 0.1820, -1.2818, 0.1035, 0.1145, -0.0061, 0.9177, 668962, 0.0443, -0.3127, -0.1035, -0.0339, -0.0981, 0.1107, 0.0468, 167, 155
12.4190, -0.0755, -1.1377, -0.0341, 0.0750, -0.0052, 0.9189, 669002, 0.0443, -0.3127, -0.1034, -0.0338, -0.0979, 0.1109, -0.0025, 158, 164
12.4340, 0.1989, -0.8477, -0.0914, 0.0557, -0.0045, 0.9186, 669022, 0.0443, -0.3128, -0.1035, -0.0339, -0.0982, 0.1107, -0.0271, 157, 165
12.4500, 0.1989, -0.8477, -0.0914, 0.0557, -0.0045, 0.9186, 669022, 0.0444, -0.3127, -0.1035, -0.0339, -0.0980, 0.1108, -0.0271, 157, 165
12.4660, 0.5037, -1.9489, 0.0013, 0.0284, -0.0023, 0.9186, 669042, 0.0444, -0.3127, -0.1034, -0.0339, -0.0981, 0.1107, -0.0517, 167, 154
12.4970, -0.0699, -1.8205, -0.0078, -0.0389, -0.0040, 0.9193, 669082, 0.0443, -0.3127, -0.1035, -0.0338, -0.0981, 0.1108, -0.1000, 181, 138
12.5120, -0.0699, -1.8205, -0.0078, -0.0389, -0.0040, 0.9193, 669082, 0.0443, -0.3126, -0.1034, -0.0338, -0.0982, 0.1108, -0.1000, 181, 138
12.5280, 0.4588, -0.9875, -0.1519, -0.0651, -0.0021, 0.9193, 669102, 0.0443, -0.3127, -0.1035, -0.0338, -0.0981, 0.1108, -0.1237, 164, 158
12.5440, 0.4588, -0.9875, -0.1519, -0.0651, -0.0021, 0.9193, 669102, 0.0443, -0.3127, -0.1034, -0.0339, -0.0981, 0.1107, -0.1237, 164, 158
12.5750, -0.1328, -0.8257, -0.0546, -0.0956, -0.0021, 0.9187, 669142, 0.0444, -0.3127, -0.1034, -0.0338, -0.0980, 0.1107, -0.1695, 157, 166
12.5900, 0.2373, -1.5277, -0.0040, -0.1445, -0.0010, 0.9200, 669182, 0.0443, -0.3127, -0.1035, -0.0339, -0.0980, 0.1107, -0.2125, 172, 151
12.6060, 0.2373, -1.5277, -0.0040, -0.1445, -0.0010, 0.9200, 669182, 0.0443, -0.3127, -0.1034, -0.0338, -0.0982, 0.1108, -0.2125, 172, 151
12.6370, -0.0685, -1.0743, -0.3180, -0.1728, -0.0024, 0.9191, 669202, 0.0444, -0.3127, -0.1035, -0.0338, -0.0980, 0.1108, -0.2328, 162, 163
12.6530, -0.1672, -1.3057, 0.2177, -0.2253, -0.0021, 0.9196, 669242, 0.0443, -0.3128, -0.1035, -0.0340, -0.0980, 0.1108, -0.2706, 175, 150
12.6690, -0.1672, -1.3057, 0.2177, -0.2253, -0.0021, 0.9196, 669242, 0.0444, -0.3127, -0.1034, -0.0338, -0.0980, 0.1107, -0.2706, 175, 150
12.6840, -0.4886, -1.0324, -0.0255, -0.2423, -0.0028, 0.9200, 669262, 0.0443, -0.3127, -0.1035, -0.0339, -0.0980, 0.1108, -0.2880, 171, 156
12.7150, -0.0024, -0.5798, -0.0417, -0.2766, -0.0031, 0.9207, 669302, 0.0443, -0.3127, -0.1034, -0.0339, -0.0982, 0.1107, -0.3191, 165, 164
12.7310, -0.0024, -0.5798, -0.0417, -0.2766, -0.0031, 0.9207, 669302, 0.0444, -0.3127, -0.1034, -0.0339, -0.0979, 0.1109, -0.3191, 165, 164
12.7470, 0.0398, -0.8926, 0.0656, -0.3042, -0.0038, 0.9215, 669342, 0.0444, -0.3127, -0.1034, -0.0339, -0.0981, 0.1107, -0.3453, 171, 159
12.7780, -0.2027, -0.4220, -0.3129, -0.3197, -0.0044, 0.9214, 669362, 0.0443, -0.3127, -0.1035, -0.0339, -0.0981, 0.1108, -0.3564, 162, 170
12.7940, -0.2027, -0.4220, -0.3129, -0.3197, -0.0044, 0.9214, 669362, 0.0443, -0.3127, -0.1034, -0.0339, -0.0980, 0.1108, -0.3564, 162, 170
12.8090, 0.1844, -1.0332, 0.1640, -0.3368, -0.0042, 0.9214, 669382, 0.0443, -0.3127, -0.1035, -0.0337, -0.0982, 0.1108, -0.3660, 175, 157
12.8250, 0.1844, -1.0332, 0.1640, -0.3368, -0.0042, 0.9214, 669382, 0.0444, -0.3127, -0.1034, -0.0339, -0.0980, 0.1108, -0.3660, 175, 157
12.8560, -0.2949, -0.4069, -0.2314, -0.3698, -0.0052, 0.9221, 669422, 0.0443, -0.3127, -0.1034, -0.0338, -0.0982, 0.1107, -0.3810, 172, 163
12.8720, -0.2674, -0.6483, 0.1016, -0.3972, -0.0035, 0.9224, 669462, 0.0443, -0.3126, -0.1034, -0.0338, -0.0982, 0.1108, -0.3899, 183, 153
12.8870, -0.2674, -0.6483, 0.1016, -0.3972, -0.0035, 0.9224, 669462, 0.0444, -0.3127, -0.1034, -0.0338, -0.0979, 0.1108, -0.3899, 183, 153
12.9190, -0.2610, -0.9391, 0.0951, -0.4082, -0.0038, 0.9228, 669482, 0.0443, -0.3127, -0.1035, -0.0339, -0.0982, 0.1108, -0.3921, 188, 148
12.9340, -0.0183, -0.0505, -0.2269, -0.4225, -0.0035, 0.9226, 669522, 0.0444, -0.3127, -0.1035, -0.0339, -0.0980, 0.1108, -0.3918, 179, 160
12.9500, -0.0183, -0.0505, -0.2269, -0.4225, -0.0035, 0.9226, 669522, 0.0443, -0.3127, -0.1034, -0.0338, -0.0983, 0.1106, -0.3918, 179, 160
12.9650, -0.4636, -0.0960, 0.0691, -0.4304, -0.0042, 0.9243, 669562, 0.0443, -0.3127, -0.1035, -0.0339, -0.0981, 0.1108, -0.3853, 183, 156
12.9970, -0.0403, 0.0874, -0.1183, -0.4304, -0.0044, 0.9243, 669582, 0.0443, -0.3127, -0.1034, -0.0338, -0.0982, 0.1108, -0.3797, 180, 159
13.0120, -0.0403, 0.0874, -0.1183, -0.4304, -0.0044, 0.9243, 669582, 0.0443, -0.3127, -0.1035, -0.0339, -0.0981, 0.1109, -0.3797, 180, 159
13.0280, -0.2674, 0.0766, 0.1511, -0.4267, -0.0045, 0.9255, 669622, 0.0444, -0.3127, -0.1034, -0.0338, -0.0981, 0.1108, -0.3642, 183, 156
13.0430, -0.2674, 0.0766, 0.1511, -0.4267, -0.0045, 0.9255, 669622, 0.0444, -0.3127, -0.1034, -0.0339, -0.0981, 0.1107, -0.3642, 183, 156
13.0750, 0.0105, 0.0661, 0.0683, -0.4248, -0.0063, 0.9264, 669642, 0.0443, -0.3127, -0.1035, -0.0340, -0.0981, 0.1108, -0.3543, 190, 147
13.0900, -0.1328, 0.6091, 0.0613, -0.4128, -0.0044, 0.9264, 669682, 0.0443, -0.3126, -0.1034, -0.0338, -0.0981, 0.1108, -0.3302, 180, 158
13.1060, -0.1328, 0.6091, 0.0613, -0.4128, -0.0044, 0.9264, 669682, 0.0443, -0.3128, -0.1035, -0.0338, -0.0982, 0.1107, -0.3302, 180, 158
13.1370, -0.4042, 0.7077, -0.1317, -0.3864, -0.0059, 0.9280, 669722, 0.0443, -0.3127, -0.1034, -0.0339, -0.0980, 0.1108, -0.3010, 179, 156
13.1530, 0.3115, 0.7717, -0.1253, -0.3721, -0.0045, 0.9282, 669742, 0.0443, -0.3127, -0.1034, -0.0338, -0.0981, 0.1108, -0.2846, 176, 159
13.1680, 0.3115, 0.7717, -0.1253, -0.3721, -0.0045, 0.9282, 669742, 0.0443, -0.3127, -0.1035, -0.0339, -0.0982, 0.1108, -0.2846, 176, 159
13.2000, -0.2279, 0.4970, 0.1830, -0.3426, -0.0047, 0.9297, 669782, 0.0443, -0.3127, -0.1034, -0.0339, -0.0981, 0.1109, -0.2484, 179, 153
13.2150, 0.2752, 1.0547, 0.0771, -0.3257, -0.0035, 0.9304, 669802, 0.0443, -0.3127, -0.1035, -0.0338, -0.0981, 0.1108, -0.2288, 172, 160
13.2310, 0.2752, 1.0547, 0.0771, -0.3257, -0.0035, 0.9304, 669802, 0.0444, -0.3127, -0.1034, -0.0339, -0.0981, 0.1107, -0.2288, 172, 160
13.2470, 0.0258, 0.9165, 0.1857, -0.2876, -0.0031, 0.9311, 669842, 0.0444, -0.3127, -0.1034, -0.0339, -0.0979, 0.1108, -0.1870, 168, 161
13.2780, -0.2406, 1.4925, -0.0771, -0.2468, -0.0052, 0.9334, 669882, 0.0443, -0.3127, -0.1035, -0.0339, -0.0980, 0.1108, -0.1422, 164, 164
13.2930, -0.2406, 1.4925, -0.0771, -0.2468, -0.0052, 0.9334, 669882, 0.0443, -0.3127, -0.1034, -0.0337, -0.0982, 0.1108, -0.1422, 164, 164
13.3090, 0.3443, 1.2633, -0.1064, -0.2196, -0.0056, 0.9338, 669902, 0.0444, -0.3127, -0.1035, -0.0338, -0.0980, 0.1108, -0.1190, 164, 163
13.3250, 0.3443, 1.2633, -0.1064, -0.2196, -0.0056, 0.9338, 669902, 0.0443, -0.3127, -0.1034, -0.0339, -0.0982, 0.1107, -0.1190, 164, 163
13.3560, -0.3174, 1.4821, 0.1220, -0.1695, -0.0065, 0.9351, 669942, 0.0443, -0.3127, -0.1035, -0.0338, -0.0980, 0.1109, -0.0711, 169, 155
13.3720, 0.0766, 1.3326, -0.0761, -0.1454, -0.0059, 0.9355, 669962, 0.0443, -0.3127, -0.1034, -0.0338, -0.0982, 0.1107, -0.0468, 163, 160
13.3870, 0.0766, 1.3326, -0.0761, -0.1454, -0.0059, 0.9355, 669962, 0.0443, -0.3127, -0.1034, -0.0338, -0.0982, 0.1108, -0.0468, 163, 160
13.4180, 0.0693, 1.5046, -0.2416, -0.1208, -0.0056, 0.9351, 669982, 0.0443, -0.3127, -0.1035, -0.0338, -0.0980, 0.1108, -0.0222, 160, 163
13.4340, -0.1075, 1.7060, -0.0129, -0.0698, -0.0077, 0.9362, 670022, 0.0443, -0.3127, -0.1034, -0.0337, -0.0982, 0.1108, 0.0271, 162, 160
13.4500, -0.1075, 1.7060, -0.0129, -0.0698, -0.0077, 0.9362, 670022, 0.0443, -0.3127, -0.1035, -0.0339, -0.0980, 0.1109, 0.0271, 162, 160
13.4650, -0.2027, 1.6635, -0.1978, -0.0412, -0.0086, 0.9358, 670042, 0.0444, -0.3127, -0.1034, -0.0338, -0.0981, 0.1106, 0.0517, 156, 166
13.4970, -0.0898, 0.9571, 0.2059, 0.0042, -0.0077, 0.9371, 670082, 0.0443, -0.3127, -0.1035, -0.0339, -0.0981, 0.1109, 0.1000, 169, 152
13.5120, -0.0898, 0.9571, 0.2059, 0.0042, -0.0077, 0.9371, 670082, 0.0443, -0.3127, -0.1034, -0.0339, -0.0981, 0.1108, 0.1000, 169, 152
13.5280, -0.2561, 1.3340, -0.2274, 0.0262, -0.0093, 0.9369, 670102, 0.0443, -0.3127, -0.1034, -0.0338, -0.0982, 0.1108, 0.1237, 163, 159
13.5590, 0.0242, 1.2393, 0.0766, 0.0709, -0.0094, 0.9372, 670142, 0.0443, -0.3127, -0.1035, -0.0340, -0.0981, 0.1107, 0.1695, 165, 157
13.5750, 0.0242, 1.2393, 0.0766, 0.0709, -0.0094, 0.9372, 670142, 0.0443, -0.3127, -0.1034, -0.0338, -0.0981, 0.1107, 0.1695, 165, 157
13.5900, 0.3094, 1.6267, -0.1709, 0.1248, -0.0106, 0.9371, 670182, 0.0443, -0.3127, -0.1035, -0.0339, -0.0981, 0.1108, 0.2125, 153, 170
13.6060, 0.3094, 1.6267, -0.1709, 0.1248, -0.0106, 0.9371, 670182, 0.0443, -0.3127, -0.1034, -0.0338, -0.0981, 0.1108, 0.2125, 153, 170
13.6370, -0.1992, 1.4122, -0.0573, 0.1539, -0.0105, 0.9371, 670202, 0.0443, -0.3127, -0.1034, -0.0339, -0.0981, 0.1108, 0.2328, 152, 171
13.6530, 0.0551, 0.5526, -0.0156, 0.1904, -0.0110, 0.9379, 670242, 0.0443, -0.3127, -0.1035, -0.0339, -0.0981, 0.1108, 0.2706, 178, 146
13.6680, 0.0551, 0.5526, -0.0156, 0.1904, -0.0110, 0.9379, 670242, 0.0443, -0.3127, -0.1034, -0.0339, -0.0981, 0.1108, 0.2706, 178, 146
13.6840, 0.1231, 0.8448, -0.2602, 0.2019, -0.0113, 0.9378, 670262, 0.0443, -0.3127, -0.1035, -0.0339, -0.0980, 0.1108, 0.2880, 170, 155
13.7150, 0.0943, 0.9475, 0.3220, 0.2410, -0.0120, 0.9386, 670302, 0.0443, -0.3126, -0.1034, -0.0338, -0.0981, 0.1106, 0.3191, 164, 163
13.7310, 0.0943, 0.9475, 0.3220, 0.2410, -0.0120, 0.9386, 670302, 0.0443, -0.3127, -0.1035, -0.0339, -0.0979, 0.1109, 0.3191, 164, 163
13.7460, -0.2599, 1.3246, -0.3121, 0.2911, -0.0134, 0.9378, 670342, 0.0443, -0.3127, -0.1034, -0.0339, -0.0982, 0.1107, 0.3453, 158, 172
13.7780, 0.0984, 0.6953, -0.0395, 0.3074, -0.0134, 0.9374, 670362, 0.0444, -0.3127, -0.1034, -0.0339, -0.0978, 0.1108, 0.3564, 159, 172
13.7930, 0.0984, 0.6953, -0.0395, 0.3074, -0.0134, 0.9374, 670362, 0.0443, -0.3127, -0.1035, -0.0338, -0.0983, 0.1108, 0.3564, 159, 172
13.8090, -0.3416, 0.6698, -0.1623, 0.3272, -0.0140, 0.9381, 670402, 0.0443, -0.3126, -0.1034, -0.0338, -0.0982, 0.1108, 0.3742, 171, 161
13.8250, -0.3416, 0.6698, -0.1623, 0.3272, -0.0140, 0.9381, 670402, 0.0443, -0.3127, -0.1035, -0.0339, -0.0980, 0.1108, 0.3742, 171, 161
13.8560, -0.3400, 0.9665, -0.2661, 0.3396, -0.0143, 0.9372, 670422, 0.0443, -0.3127, -0.1034, -0.0338, -0.0982, 0.1108, 0.3810, 159, 173
13.8710, -0.2674, 0.7577, -0.0465, 0.3649, -0.0126, 0.9379, 670462, 0.0444, -0.3127, -0.1034, -0.0339, -0.0979, 0.1108, 0.3899, 164, 170
13.8870, -0.2674, 0.7577, -0.0465, 0.3649, -0.0126, 0.9379, 670462, 0.0443, -0.3127, -0.1035, -0.0338, -0.0982, 0.1107, 0.3899, 164, 170
13.9180, 0.4526, 0.3274, 0.0871, 0.3885, -0.0110, 0.9381, 670502, 0.0443, -0.3126, -0.1034, -0.0338, -0.0983, 0.1107, 0.3927, 161, 175
13.9340, -0.2924, 0.1430, 0.1134, 0.3950, -0.0106, 0.9386, 670522, 0.0443, -0.3127, -0.1035, -0.0339, -0.0980, 0.1108, 0.3918, 167, 170
13.9500, -0.2924, 0.1430, 0.1134, 0.3950, -0.0106, 0.9386, 670522, 0.0443, -0.3127, -0.1034, -0.0338, -0.0982, 0.1107, 0.3918, 167, 170
13.9650, 0.3271, 0.1642, -0.0774, 0.3978, -0.0115, 0.9381, 670562, 0.0444, -0.3127, -0.1034, -0.0339, -0.0980, 0.1108, 0.3853, 161, 176
13.9960, -0.0672, 0.0822, 0.0774, 0.4006, -0.0108, 0.9383, 670582, 0.0443, -0.3127, -0.1035, -0.0338, -0.0982, 0.1107, 0.3797, 162, 175
14.0120, -0.0672, 0.0822, 0.0774, 0.4006, -0.0108, 0.9383, 670582, 0.0443, -0.3127, -0.1035, -0.0339, -0.0982, 0.1109, 0.3797, 162, 175
14.0280, 0.1712, 0.2481, -0.1414, 0.4040, -0.0110, 0.9385, 670622, 0.0443, -0.3127, -0.1034, -0.0339, -0.0980, 0.1107, 0.3642, 157, 180
14.0590, -0.3397, -0.5779, 0.0833, 0.3955, -0.0103, 0.9379, 670662, 0.0444, -0.3127, -0.1035, -0.0339, -0.0981, 0.1108, 0.3429, 160, 176
14.0740, -0.3397, -0.5779, 0.0833, 0.3955, -0.0103, 0.9379, 670662, 0.0443, -0.3127, -0.1035, -0.0339, -0.0980, 0.1109, 0.3429, 160, 176
14.0900, -0.3397, -0.5779, 0.0833, 0.3955, -0.0103, 0.9379, 670662, 0.0443, -0.3127, -0.1035, -0.0339, -0.0980, 0.1107, 0.3429, 160, 176
14.1060, -0.3397, -0.5779, 0.0833, 0.3955, -0.0103, 0.9379, 670662, 0.0443, -0.3127, -0.1034, -0.0339, -0.0981, 0.1107, 0.3429, 160, 176
14.1370, 0.1884, -0.2209, -0.0836, 0.3796, -0.0105, 0.9379, 670702, 0.0443, -0.3127, -0.1035, -0.0339, -0.0980, 0.1108, 0.3162, 149, 185
14.1530, -0.1868, -1.0797, 0.0836, 0.3576, -0.0093, 0.9385, 670742, 0.0443, -0.3127, -0.1034, -0.0339, -0.0981, 0.1108, 0.2846, 167, 167
14.1680, -0.1868, -1.0797, 0.0836, 0.3576, -0.0093, 0.9385, 670742, 0.0444, -0.3127, -0.1035, -0.0338, -0.0980, 0.1109, 0.2846, 167, 167
14.1990, 0.1841, -0.4771, -0.1411, 0.3442, -0.0087, 0.9385, 670762, 0.0443, -0.3127, -0.1034, -0.0339, -0.0981, 0.1106, 0.2670, 150, 182
14.2150, 0.0903, -1.2434, 0.1801, 0.3117, -0.0089, 0.9392, 670802, 0.0444, -0.3127, -0.1035, -0.0339, -0.0980, 0.1107, 0.2288, 165, 166
14.2310, 0.0903, -1.2434, 0.1801, 0.3117, -0.0089, 0.9392, 670802, 0.0443, -0.3127, -0.1034, -0.0338, -0.0981, 0.1108, 0.2288, 165, 166
14.2460, -0.1376, -0.5432, -0.1355, 0.2932, -0.0086, 0.9393, 670822, 0.0443, -0.3127, -0.1035, -0.0338, -0.0981, 0.1108, 0.2083, 161, 169
14.2780, -0.0226, -1.4296, 0.1298, 0.2503, -0.0087, 0.9399, 670862, 0.0443, -0.3127, -0.1034, -0.0339, -0.0982, 0.1108, 0.1650, 163, 165
14.2930, -0.0226, -1.4296, 0.1298, 0.2503, -0.0087, 0.9399, 670862, 0.0444, -0.3127, -0.1034, -0.0338, -0.0980, 0.1107, 0.1650, 163, 165
14.3090, 0.1102, -0.7918, -0.2024, 0.2046, -0.0079, 0.9404, 670902, 0.0443, -0.3127, -0.1035, -0.0339, -0.0980, 0.1108, 0.1190, 154, 171
14.3240, 0.1102, -0.7918, -0.2024, 0.2046, -0.0079, 0.9404, 670902, 0.0443, -0.3127, -0.1034, -0.0338, -0.0982, 0.1108, 0.1190, 154, 171
14.3560, -0.2989, -0.8795, -0.1895, 0.1838, -0.0082, 0.9402, 670922, 0.0443, -0.3127, -0.1034, -0.0338, -0.0980, 0.1109, 0.0953, 155, 170
14.3710, 0.2029, -1.5248, 0.1718, 0.1578, -0.0075, 0.9413, 670942, 0.0443, -0.3127, -0.1035, -0.0339, -0.0982, 0.1107, 0.0711, 168, 155
14.3870, 0.2029, -1.5248, 0.1718, 0.1578, -0.0075, 0.9413, 670942, 0.0444, -0.3127, -0.1034, -0.0339, -0.0979, 0.1108, 0.0711, 168, 155
14.4180, -0.0223, -1.1603, -0.0879, 0.1030, -0.0082, 0.9413, 670982, 0.0443, -0.3127, -0.1035, -0.0339, -0.0980, 0.1108, 0.0222, 159, 164
14.4340, -0.2438, -1.3775, -0.1610, 0.0501, -0.0084, 0.9430, 671022, 0.0443, -0.3127, -0.1034, -0.0338, -0.0982, 0.1106, -0.0271, 171, 150
14.4490, -0.2438, -1.3775, -0.1610, 0.0501, -0.0084, 0.9430, 671022, 0.0444, -0.3127, -0.1035, -0.0338, -0.0979, 0.1109, -0.0271, 171, 150
14.4650, 0.0226, -1.2367, -0.2336, 0.0251, -0.0084, 0.9427, 671042, 0.0442, -0.3127, -0.1035, -0.0338, -0.0982, 0.1108, -0.0517, 157, 164
14.4960, -0.3561, -1.3383, 0.1097, -0.0311, -0.0075, 0.9439, 671082, 0.0444, -0.3127, -0.1034, -0.0339, -0.0981, 0.1107, -0.1000, 170, 151
14.5120, -0.3561, -1.3383, 0.1097, -0.0311, -0.0075, 0.9439, 671082, 0.0443, -0.3127, -0.1034, -0.0339, -0.0980, 0.1107, -0.1000, 170, 151
14.5280, 0.3263, -1.0310, -0.1537, -0.0812, -0.0072, 0.9440, 671122, 0.0444, -0.3127, -0.1035, -0.0338, -0.0982, 0.1108, -0.1469, 155, 167
14.5590, -0.3201, -1.0050, -0.0675, -0.1019, -0.0079, 0.9442, 671142, 0.0444, -0.3127, -0.1034, -0.0338, -0.0980, 0.1109, -0.1695, 159, 163
14.5740, -0.3201, -1.0050, -0.0675, -0.1019, -0.0079, 0.9442, 671142, 0.0443, -0.3127, -0.1035, -0.0338, -0.0982, 0.1107, -0.1695, 159, 163
14.5900, -0.0739, -1.0706, -0.1040, -0.1429, -0.0072, 0.9460, 671182, 0.0443, -0.3127, -0.1034, -0.0338, -0.0982, 0.1108, -0.2125, 171, 152
14.6060, -0.0739, -1.0706, -0.1040, -0.1429, -0.0072, 0.9460, 671182, 0.0443, -0.3127, -0.1035, -0.0338, -0.0980, 0.1108, -0.2125, 171, 152
14.6370, -0.0667, -0.7781, -0.1879, -0.1628, -0.0073, 0.9458, 671202, 0.0443, -0.3127, -0.1034, -0.0338, -0.0982, 0.1107, -0.2328, 154, 170
14.6530, -0.0656, -1.6533, 0.2010, -0.2133, -0.0084, 0.9475, 671242, 0.0444, -0.3127, -0.1034, -0.0339, -0.0980, 0.1108, -0.2706, 180, 144
14.6680, -0.0656, -1.6533, 0.2010, -0.2133, -0.0084, 0.9475, 671242, 0.0443, -0.3127, -0.1035, -0.0339, -0.0981, 0.1107, -0.2706, 180, 144
14.6990, 0.5419, -0.9805, -0.0914, -0.2578, -0.0086, 0.9475, 671282, 0.0444, -0.3127, -0.1035, -0.0339, -0.0981, 0.1108, -0.3041, 170, 158
14.7150, -0.1430, -0.7641, 0.0868, -0.2766, -0.0091, 0.9477, 671302, 0.0444, -0.3127, -0.1034, -0.0339, -0.0981, 0.1108, -0.3191, 171, 158
14.7310, -0.1430, -0.7641, 0.0868, -0.2766, -0.0091, 0.9477, 671302, 0.0443, -0.3127, -0.1035, -0.0340, -0.0981, 0.1106, -0.3191, 171, 158
14.7460, 0.2072, -0.5408, -0.0949, -0.3084, -0.0087, 0.9489, 671342, 0.0443, -0.3127, -0.1034, -0.0339, -0.0981, 0.1107, -0.3453, 168, 162
14.7770, -0.1019, -0.6674, -0.1933, -0.3239, -0.0086, 0.9489, 671362, 0.0443, -0.3127, -0.1034, -0.0338, -0.0980, 0.1106, -0.3564, 166, 166
14.7930, -0.1019, -0.6674, -0.1933, -0.3239, -0.0086, 0.9489, 671362, 0.0443, -0.3127, -0.1035, -0.0339, -0.0980, 0.1107, -0.3564, 166, 166
14.8090, -0.0962, -0.5921, -0.0073, -0.3578, -0.0089, 0.9505, 671402, 0.0443, -0.3127, -0.1034, -0.0338, -0.0982, 0.1107, -0.3742, 173, 160
14.8240, -0.0962, -0.5921, -0.0073, -0.3578, -0.0089, 0.9505, 671402, 0.0443, -0.3127, -0.1035, -0.0339, -0.0981, 0.1108, -0.3742, 173, 160
14.8560, 0.2733, -0.6284, 0.0417, -0.3878, -0.0103, 0.9507, 671442, 0.0443, -0.3127, -0.1034, -0.0338, -0.0981, 0.1108, -0.3862, 179, 156
14.8710, -0.4287, -0.6088, 0.1019, -0.3981, -0.0105, 0.9514, 671462, 0.0443, -0.3127, -0.1035, -0.0338, -0.0980, 0.1107, -0.3899, 181, 155
14.8870, -0.4287, -0.6088, 0.1019, -0.3981, -0.0105, 0.9514, 671462, 0.0443, -0.3127, -0.1034, -0.0339, -0.0981, 0.1108, -0.3899, 181, 155
14.9180, 0.1274, -0.3236, -0.2414, -0.4161, -0.0098, 0.9517, 671502, 0.0444, -0.3127, -0.1034, -0.0338, -0.0981, 0.1108, -0.3927, 182, 155
14.9340, -0.1003, -0.1341, -0.1167, -0.4213, -0.0096, 0.9516, 671522, 0.0443, -0.3127, -0.1034, -0.0339, -0.0980, 0.1108, -0.3918, 178, 161
14.9490, -0.1003, -0.1341, -0.1167, -0.4213, -0.0096, 0.9516, 671522, 0.0443, -0.3127, -0.1034, -0.0338, -0.0982, 0.1108, -0.3918, 178, 161
14.9650, -0.2537, 0.0398, -0.0317, -0.4323, -0.0103, 0.9533, 671562, 0.0443, -0.3127, -0.1034, -0.0338, -0.0980, 0.1107, -0.3853, 187, 152
14.9960, 0.2986, 0.1680, 0.0212, -0.4269, -0.0105, 0.9536, 671602, 0.0443, -0.3128, -0.1035, -0.0339, -0.0981, 0.1108, -0.3727, 179, 160
15.0120, 0.2986, 0.1680, 0.0212, -0.4269, -0.0105, 0.9536, 671602, 0.0444, -0.3127, -0.1034, -0.0338, -0.0982, 0.1108, -0.3727, 179, 160
15.0270, 0.2986, 0.1680, 0.0212, -0.4269, -0.0105, 0.9536, 671602, 0.0444, -0.3127, -0.1035, -0.0338, -0.0980, 0.1108, -0.3727, 179, 160
15.0590, -0.0949, 0.1384, 0.0847, -0.4164, -0.0126, 0.9556, 671642, 0.0443, -0.3127, -0.1034, -0.0338, -0.0982, 0.1107, -0.3543, 184, 153
15.0740, -0.0949, 0.1384, 0.0847, -0.4164, -0.0126, 0.9556, 671642, 0.0444, -0.3127, -0.1034, -0.0338, -0.0980, 0.1108, -0.3543, 184, 153
15.0900, -0.0669, 0.3959, 0.0062, -0.4004, -0.0120, 0.9552, 671682, 0.0443, -0.3127, -0.1035, -0.0339, -0.0980, 0.1107, -0.3302, 176, 161
15.1050, -0.0669, 0.3959, 0.0062, -0.4004, -0.0120, 0.9552, 671682, 0.0443, -0.3127, -0.1035, -0.0339, -0.0981, 0.1108, -0.3302, 176, 161
15.1370, 0.0167, 0.0624, 0.3319, -0.3925, -0.0122, 0.9561, 671702, 0.0443, -0.3127, -0.1034, -0.0338, -0.0980, 0.1108, -0.3162, 185, 150
15.1520, 0.0669, 0.6545, -0.1903, -0.3725, -0.0138, 0.9563, 671742, 0.0443, -0.3127, -0.1035, -0.0339, -0.0981, 0.1107, -0.2846, 178, 156
15.1680, 0.0669, 0.6545, -0.1903, -0.3725, -0.0138, 0.9563, 671742, 0.0444, -0.3127, -0.1034, -0.0338, -0.0979, 0.1108, -0.2846, 178, 156
15.1990, 0.2201, 0.7658, 0.1519, -0.3611, -0.0136, 0.9568, 671762, 0.0443, -0.3127, -0.1034, -0.0339, -0.0981, 0.1107, -0.2670, 178, 156
15.2150, 0.0113, 0.9536, -0.0145, -0.3313, -0.0147, 0.9582, 671802, 0.0443, -0.3127, -0.1035, -0.0339, -0.0982, 0.1107, -0.2288, 177, 154
15.2300, 0.0113, 0.9536, -0.0145, -0.3313, -0.0147, 0.9582, 671802, 0.0444, -0.3127, -0.1034, -0.0338, -0.0979, 0.1108, -0.2288, 177, 154
15.2460, 0.1943, 1.1880, -0.2465, -0.3128, -0.0134, 0.9582, 671822, 0.0443, -0.3127, -0.1035, -0.0339, -0.0982, 0.1106, -0.2083, 171, 160
15.2770, 0.1145, 0.6577, 0.3091, -0.2674, -0.0136, 0.9603, 671862, 0.0444, -0.3127, -0.1034, -0.0339, -0.0980, 0.1107, -0.1650, 178, 149
15.2930, 0.1145, 0.6577, 0.3091, -0.2674, -0.0136, 0.9603, 671862, 0.0444, -0.3127, -0.1034, -0.0338, -0.0981, 0.1107, -0.1650, 178, 149
15.3090, -0.2174, 1.3673, -0.1054, -0.2435, -0.0129, 0.9606, 671882, 0.0443, -0.3127, -0.1035, -0.0340, -0.0980, 0.1108, -0.1422, 166, 162
