time (s), gyro_x (rad/s), gyro_y (rad/s), gyro_z (rad/s), imu_pitch (rad), imu_roll (rad), imu_yaw (rad), counter, x (m), y (m), z (m), yaw (rad), pitch (rad), roll (rad), angle_pitch_desired (rad), mu1, mu2
0.0000, -0.1669, -2.7523, -0.3301, 0.6554, -0.0127, 0.9081, 831360, 0.0443, -0.3128, -0.1035, -0.0339, -0.0981, 0.1108, 0.3026, 139, 200
0.0320, 0.2459, -7.1009, 0.0820, 0.4253, -0.0126, 0.9072, 831400, 0.0443, -0.3127, -0.1034, -0.0338, -0.0980, 0.1108, 0.2308, 200, 61
0.0470, 0.2459, -7.1009, 0.0820, 0.4253, -0.0126, 0.9072, 831400, 0.0443, -0.3127, -0.1035, -0.0339, -0.0980, 0.1108, 0.2308, 200, 61
0.0630, -1.2361, -6.4599, 0.0435, 0.2930, -0.0122, 0.9069, 831420, 0.0443, -0.3127, -0.1034, -0.0339, -0.0981, 0.1107, 0.1892, 200, 1
0.0940, 0.0578, -6.2782, -0.1242, 0.1553, -0.0108, 0.9074, 831440, 0.0444, -0.3127, -0.1035, -0.0338, -0.0980, 0.1108, 0.1446, 200, 1
0.1100, 0.0578, -6.2782, -0.1242, 0.1553, -0.0108, 0.9074, 831440, 0.0443, -0.3127, -0.1035, -0.0338, -0.0981, 0.1108, 0.1446, 200, 1
0.1250, 0.5916, -1.4638, 0.0645, 0.0061, -0.0079, 0.9083, 831480, 0.0444, -0.3127, -0.1035, -0.0338, -0.0980, 0.1108, 0.0493, 198, 114
0.1410, 0.5916, -1.4638, 0.0645, 0.0061, -0.0079, 0.9083, 831480, 0.0444, -0.3127, -0.1035, -0.0338, -0.0979, 0.1109, 0.0493, 198, 114
0.1720, 0.6185, 3.0738, -0.0191, 0.0848, -0.0096, 0.9095, 831520, 0.0443, -0.3127, -0.1034, -0.0339, -0.0982, 0.1107, -0.0493, 1, 200
0.1880, 0.3373, 2.4903, 0.0137, 0.1477, -0.0096, 0.9100, 831540, 0.0444, -0.3127, -0.1035, -0.0338, -0.0980, 0.1109, -0.0976, 1, 200
0.2030, 0.3373, 2.4903, 0.0137, 0.1477, -0.0096, 0.9100, 831540, 0.0443, -0.3127, -0.1035, -0.0338, -0.0981, 0.1107, -0.0976, 1, 200
0.2350, -0.0505, -1.8334, -0.0607, 0.1703, -0.0110, 0.9102, 831580, 0.0443, -0.3127, -0.1035, -0.0339, -0.0981, 0.1108, -0.1892, 69, 200
0.2500, 0.5604, -4.8706, 0.2352, 0.1031, -0.0103, 0.9104, 831600, 0.0444, -0.3127, -0.1035, -0.0338, -0.0980, 0.1109, -0.2308, 158, 165
0.2660, 0.5604, -4.8706, 0.2352, 0.1031, -0.0103, 0.9104, 831600, 0.0443, -0.3127, -0.1035, -0.0338, -0.0982, 0.1108, -0.2308, 158, 165
0.2810, 0.0957, -6.1758, -0.3352, -0.1417, -0.0148, 0.9104, 831640, 0.0443, -0.3127, -0.1035, -0.0338, -0.0981, 0.1109, -0.3026, 200, 61
0.3130, 0.2314, -1.3200, -0.0250, -0.3131, -0.0140, 0.9111, 831680, 0.0443, -0.3127, -0.1034, -0.0338, -0.0982, 0.1107, -0.3553, 179, 151
0.3280, 0.2314, -1.3200, -0.0250, -0.3131, -0.0140, 0.9111, 831680, 0.0443, -0.3127, -0.1035, -0.0339, -0.0981, 0.1109, -0.3553, 179, 151
0.3440, -0.1150, 1.1004, 0.0892, -0.3147, -0.0150, 0.9114, 831700, 0.0443, -0.3127, -0.1034, -0.0338, -0.0980, 0.1109, -0.3735, 123, 200
0.3600, -0.1150, 1.1004, 0.0892, -0.3147, -0.0150, 0.9114, 831700, 0.0443, -0.3128, -0.1035, -0.0338, -0.0981, 0.1109, -0.3735, 123, 200
0.3910, -0.1255, 1.4579, 0.1812, -0.2346, -0.0147, 0.9121, 831740, 0.0444, -0.3127, -0.1035, -0.0339, -0.0980, 0.1108, -0.3919, 51, 200
0.4060, -0.1965, -0.2481, 0.1658, -0.2222, -0.0143, 0.9132, 831760, 0.0443, -0.3127, -0.1035, -0.0339, -0.0982, 0.1108, -0.3919, 115, 200
0.4220, -0.1965, -0.2481, 0.1658, -0.2222, -0.0143, 0.9132, 831760, 0.0443, -0.3127, -0.1035, -0.0339, -0.0981, 0.1109, -0.3919, 115, 200
0.4530, 0.5408, -4.0505, 0.0266, -0.3152, -0.0147, 0.9135, 831800, 0.0443, -0.3127, -0.1034, -0.0338, -0.0980, 0.1108, -0.3735, 200, 92
0.4690, -0.5867, -1.2979, 0.0282, -0.4330, -0.0168, 0.9146, 831840, 0.0443, -0.3128, -0.1035, -0.0338, -0.0982, 0.1108, -0.3315, 200, 101
0.4850, -0.5867, -1.2979, 0.0282, -0.4330, -0.0168, 0.9146, 831840, 0.0443, -0.3127, -0.1035, -0.0339, -0.0981, 0.1108, -0.3315, 200, 101
0.5000, -0.0449, 0.9730, -0.0755, -0.4349, -0.0155, 0.9149, 831860, 0.0444, -0.3127, -0.1034, -0.0339, -0.0981, 0.1106, -0.3026, 188, 151
0.5310, 0.2949, 3.4560, -0.1105, -0.3243, -0.0173, 0.9159, 831900, 0.0443, -0.3127, -0.1035, -0.0339, -0.0981, 0.1107, -0.2308, 115, 200
0.5470, 0.2949, 3.4560, -0.1105, -0.3243, -0.0173, 0.9159, 831900, 0.0443, -0.3127, -0.1034, -0.0338, -0.0981, 0.1107, -0.2308, 115, 200
0.5630, 0.0704, 2.2451, -0.1994, -0.2672, -0.0162, 0.9165, 831920, 0.0443, -0.3128, -0.1036, -0.0338, -0.0982, 0.1108, -0.1892, 137, 188
0.5940, -0.1683, -0.2865, 0.1758, -0.2349, -0.0176, 0.9170, 831960, 0.0443, -0.3127, -0.1035, -0.0339, -0.0981, 0.1107, -0.0976, 198, 121
0.6090, -0.1683, -0.2865, 0.1758, -0.2349, -0.0176, 0.9170, 831960, 0.0443, -0.3127, -0.1035, -0.0339, -0.0980, 0.1108, -0.0976, 198, 121
0.6250, 0.0317, -0.0005, 0.1817, -0.2321, -0.0171, 0.9175, 831980, 0.0443, -0.3127, -0.1035, -0.0338, -0.0981, 0.1108, -0.0493, 200, 111
0.6410, 0.0317, -0.0005, 0.1817, -0.2321, -0.0171, 0.9175, 831980, 0.0443, -0.3127, -0.1035, -0.0339, -0.0982, 0.1108, -0.0493, 200, 111
0.6720, -0.7230, 3.9771, 0.0981, -0.1506, -0.0171, 0.9179, 832020, 0.0443, -0.3128, -0.1035, -0.0339, -0.0981, 0.1108, 0.0493, 139, 182
0.6880, 0.0083, 2.1344, 0.3123, -0.0093, -0.0150, 0.9196, 832060, 0.0444, -0.3127, -0.1035, -0.0339, -0.0982, 0.1107, 0.1446, 162, 160
0.7030, 0.0083, 2.1344, 0.3123, -0.0093, -0.0150, 0.9196, 832060, 0.0443, -0.3127, -0.1035, -0.0338, -0.0981, 0.1107, 0.1446, 162, 160
0.7340, 0.1215, 1.2431, -0.0357, 0.0246, -0.0138, 0.9203, 832080, 0.0443, -0.3128, -0.1035, -0.0339, -0.0980, 0.1108, 0.1892, 180, 140
0.7500, 0.0771, 1.1466, -0.2226, 0.0463, -0.0147, 0.9203, 832100, 0.0443, -0.3127, -0.1035, -0.0339, -0.0981, 0.1108, 0.2308, 188, 129
0.7660, 0.0771, 1.1466, -0.2226, 0.0463, -0.0147, 0.9203, 832100, 0.0443, -0.3127, -0.1035, -0.0339, -0.0980, 0.1108, 0.2308, 188, 129
0.7810, 0.4104, 3.1544, 0.0812, 0.1286, -0.0129, 0.9215, 832140, 0.0443, -0.3127, -0.1035, -0.0339, -0.0982, 0.1108, 0.3026, 148, 174
0.8130, -0.0091, 2.7937, -0.1728, 0.1951, -0.0150, 0.9212, 832160, 0.0443, -0.3127, -0.1035, -0.0339, -0.0980, 0.1109, 0.3315, 146, 178
0.8280, -0.0091, 2.7937, -0.1728, 0.1951, -0.0150, 0.9212, 832160, 0.0443, -0.3127, -0.1035, -0.0339, -0.0981, 0.1107, 0.3315, 146, 178
0.8440, -0.1244, 0.4741, 0.2204, 0.2660, -0.0136, 0.9222, 832200, 0.0443, -0.3127, -0.1035, -0.0338, -0.0981, 0.1108, 0.3735, 179, 148
0.8590, -0.1244, 0.4741, 0.2204, 0.2660, -0.0136, 0.9222, 832200, 0.0444, -0.3127, -0.1035, -0.0339, -0.0980, 0.1107, 0.3735, 179, 148
0.8910, -0.1497, 0.4510, -0.0177, 0.2772, -0.0150, 0.9229, 832220, 0.0444, -0.3127, -0.1034, -0.0338, -0.0981, 0.1107, 0.3857, 184, 142
0.9060, -0.0460, 1.8191, -0.1933, 0.3252, -0.0155, 0.9233, 832260, 0.0443, -0.3127, -0.1035, -0.0338, -0.0981, 0.1108, 0.3919, 152, 178
0.9220, -0.0460, 1.8191, -0.1933, 0.3252, -0.0155, 0.9233, 832260, 0.0444, -0.3127, -0.1034, -0.0338, -0.0979, 0.1107, 0.3919, 152, 178
0.9530, 0.0833, 0.1451, 0.0753, 0.3704, -0.0147, 0.9243, 832300, 0.0444, -0.3127, -0.1035, -0.0339, -0.0981, 0.1108, 0.3735, 166, 169
0.9690, -0.1855, 0.0602, -0.2580, 0.3714, -0.0161, 0.9243, 832320, 0.0443, -0.3127, -0.1035, -0.0338, -0.0981, 0.1109, 0.3553, 162, 173
0.9840, -0.1855, 0.0602, -0.2580, 0.3714, -0.0161, 0.9243, 832320, 0.0443, -0.3127, -0.1034, -0.0338, -0.0982, 0.1107, 0.3553, 162, 173
1.0000, 0.0986, -1.0214, 0.2954, 0.3506, -0.0148, 0.9240, 832360, 0.0444, -0.3127, -0.1035, -0.0339, -0.0980, 0.1108, 0.3026, 173, 160
1.0310, -0.2191, -0.0016, -0.2838, 0.3400, -0.0138, 0.9242, 832380, 0.0444, -0.3127, -0.1034, -0.0338, -0.0981, 0.1108, 0.2688, 155, 178
1.0470, -0.2191, -0.0016, -0.2838, 0.3400, -0.0138, 0.9242, 832380, 0.0444, -0.3127, -0.1035, -0.0338, -0.0981, 0.1108, 0.2688, 155, 178
1.0630, 0.1097, -1.6871, 0.1688, 0.3058, -0.0145, 0.9252, 832420, 0.0443, -0.3127, -0.1035, -0.0338, -0.0982, 0.1107, 0.1892, 168, 163
1.0940, 0.0677, -2.0774, 0.0632, 0.2342, -0.0150, 0.9250, 832460, 0.0444, -0.3127, -0.1034, -0.0338, -0.0980, 0.1108, 0.0976, 162, 165
1.1090, 0.0677, -2.0774, 0.0632, 0.2342, -0.0150, 0.9250, 832460, 0.0443, -0.3128, -0.1035, -0.0338, -0.0982, 0.1109, 0.0976, 162, 165
1.1250, 0.5876, -2.9921, 0.1634, 0.1918, -0.0127, 0.9259, 832480, 0.0443, -0.3127, -0.1034, -0.0338, -0.0979, 0.1108, 0.0493, 180, 143
1.1410, 0.5876, -2.9921, 0.1634, 0.1918, -0.0127, 0.9259, 832480, 0.0443, -0.3127, -0.1035, -0.0339, -0.0982, 0.1107, 0.0493, 180, 143
1.1720, -0.3580, -1.7621, -0.0981, 0.1152, -0.0099, 0.9259, 832520, 0.0443, -0.3127, -0.1034, -0.0339, -0.0981, 0.1107, -0.0493, 145, 176
1.1870, 0.4061, -2.4929, 0.2008, 0.0728, -0.0098, 0.9264, 832540, 0.0444, -0.3127, -0.1035, -0.0338, -0.0979, 0.1108, -0.0976, 163, 159
1.2030, 0.4061, -2.4929, 0.2008, 0.0728, -0.0098, 0.9264, 832540, 0.0443, -0.3128, -0.1035, -0.0339, -0.0982, 0.1109, -0.0976, 163, 159
1.2340, -0.0366, -2.9907, -0.0239, -0.0351, -0.0112, 0.9268, 832580, 0.0443, -0.3127, -0.1034, -0.0338, -0.0980, 0.1108, -0.1892, 173, 147
1.2500, 0.0253, -1.5148, 0.2889, -0.1114, -0.0089, 0.9276, 832620, 0.0443, -0.3128, -0.1036, -0.0339, -0.0981, 0.1108, -0.2688, 142, 179
1.2660, 0.0253, -1.5148, 0.2889, -0.1114, -0.0089, 0.9276, 832620, 0.0444, -0.3127, -0.1034, -0.0339, -0.0981, 0.1108, -0.2688, 142, 179
1.2810, 0.2742, -1.6388, -0.1871, -0.1459, -0.0084, 0.9276, 832640, 0.0443, -0.3127, -0.1035, -0.0339, -0.0980, 0.1108, -0.3026, 162, 161
1.3120, 0.0951, -3.0079, 0.1898, -0.2426, -0.0103, 0.9278, 832680, 0.0443, -0.3128, -0.1035, -0.0338, -0.0982, 0.1108, -0.3553, 188, 135
1.3280, 0.0951, -3.0079, 0.1898, -0.2426, -0.0103, 0.9278, 832680, 0.0443, -0.3127, -0.1034, -0.0338, -0.0980, 0.1108, -0.3553, 188, 135
1.3440, 0.1287, -1.8989, 0.1962, -0.2876, -0.0096, 0.9285, 832700, 0.0443, -0.3128, -0.1035, -0.0339, -0.0980, 0.1108, -0.3735, 171, 158
1.3750, 0.3489, -0.3631, -0.0411, -0.3288, -0.0096, 0.9287, 832740, 0.0443, -0.3127, -0.1034, -0.0339, -0.0981, 0.1107, -0.3919, 161, 171
1.3910, 0.3489, -0.3631, -0.0411, -0.3288, -0.0096, 0.9287, 832740, 0.0444, -0.3127, -0.1035, -0.0338, -0.0979, 0.1108, -0.3919, 161, 171
1.4060, -0.0226, -0.8550, 0.1091, -0.3541, -0.0101, 0.9285, 832780, 0.0443, -0.3128, -0.1035, -0.0339, -0.0982, 0.1107, -0.3857, 171, 162
1.4220, -0.0226, -0.8550, 0.1091, -0.3541, -0.0101, 0.9285, 832780, 0.0443, -0.3127, -0.1035, -0.0338, -0.0981, 0.1108, -0.3857, 171, 162
1.4530, -0.0226, -0.8550, 0.1091, -0.3541, -0.0101, 0.9285, 832780, 0.0443, -0.3127, -0.1035, -0.0338, -0.0982, 0.1107, -0.3857, 171, 162
1.4690, 0.1554, 0.0169, -0.2314, -0.3786, -0.0119, 0.9294, 832820, 0.0443, -0.3127, -0.1035, -0.0339, -0.0981, 0.1108, -0.3553, 174, 161
1.4840, 0.1554, 0.0169, -0.2314, -0.3786, -0.0119, 0.9294, 832820, 0.0443, -0.3127, -0.1035, -0.0339, -0.0981, 0.1109, -0.3553, 174, 161
1.5000, 0.2438, 0.4236, 0.2857, -0.3648, -0.0120, 0.9308, 832860, 0.0443, -0.3127, -0.1035, -0.0339, -0.0982, 0.1107, -0.3026, 170, 165
1.5310, -0.4623, 1.3936, -0.0269, -0.3468, -0.0145, 0.9311, 832880, 0.0443, -0.3127, -0.1035, -0.0339, -0.0981, 0.1109, -0.2688, 167, 167
1.5470, -0.4623, 1.3936, -0.0269, -0.3468, -0.0145, 0.9311, 832880, 0.0443, -0.3127, -0.1035, -0.0339, -0.0980, 0.1108, -0.2688, 167, 167
1.5620, 0.0892, 0.9695, 0.1207, -0.3019, -0.0140, 0.9317, 832920, 0.0443, -0.3127, -0.1035, -0.0339, -0.0982, 0.1108, -0.1892, 171, 159
1.5940, -0.1642, 1.3184, 0.1387, -0.2728, -0.0147, 0.9322, 832940, 0.0443, -0.3127, -0.1035, -0.0338, -0.0981, 0.1108, -0.1446, 176, 152
1.6090, -0.1642, 1.3184, 0.1387, -0.2728, -0.0147, 0.9322, 832940, 0.0443, -0.3127, -0.1035, -0.0339, -0.0980, 0.1107, -0.1446, 176, 152
1.6250, -0.0460, 2.4567, -0.0409, -0.1963, -0.0154, 0.9320, 832980, 0.0444, -0.3127, -0.1035, -0.0339, -0.0980, 0.1108, -0.0493, 157, 168
1.6400, -0.0460, 2.4567, -0.0409, -0.1963, -0.0154, 0.9320, 832980, 0.0444, -0.3127, -0.1034, -0.0339, -0.0980, 0.1107, -0.0493, 157, 168
1.6720, -0.2384, 2.1976, -0.1027, -0.1194, -0.0150, 0.9332, 833020, 0.0443, -0.3127, -0.1035, -0.0338, -0.0981, 0.1108, 0.0493, 168, 155
1.6870, 0.3674, 2.2449, -0.0672, -0.0780, -0.0147, 0.9336, 833040, 0.0444, -0.3127, -0.1035, -0.0339, -0.0981, 0.1108, 0.0976, 165, 157
1.7030, 0.3674, 2.2449, -0.0672, -0.0780, -0.0147, 0.9336, 833040, 0.0443, -0.3127, -0.1035, -0.0338, -0.0981, 0.1108, 0.0976, 165, 157
1.7340, -0.4698, 2.3395, 0.2000, 0.0236, -0.0141, 0.9341, 833080, 0.0443, -0.3127, -0.1035, -0.0339, -0.0982, 0.1107, 0.1892, 163, 158
1.7500, 0.0317, 2.4741, -0.0124, 0.0707, -0.0140, 0.9348, 833100, 0.0443, -0.3127, -0.1034, -0.0338, -0.0980, 0.1108, 0.2308, 164, 158
1.7650, 0.0317, 2.4741, -0.0124, 0.0707, -0.0140, 0.9348, 833100, 0.0443, -0.3128, -0.1035, -0.0338, -0.0980, 0.1108, 0.2308, 164, 158
1.7810, -0.1712, 1.7508, 0.1766, 0.1520, -0.0145, 0.9353, 833140, 0.0443, -0.3127, -0.1035, -0.0338, -0.0982, 0.1107, 0.3026, 167, 157
1.8120, -0.0513, 2.2763, -0.2607, 0.2347, -0.0145, 0.9357, 833180, 0.0444, -0.3127, -0.1035, -0.0338, -0.0979, 0.1108, 0.3553, 152, 174
1.8280, -0.0513, 2.2763, -0.2607, 0.2347, -0.0145, 0.9357, 833180, 0.0443, -0.3128, -0.1035, -0.0339, -0.0981, 0.1109, 0.3553, 152, 174
1.8440, -0.1438, 1.4262, 0.2172, 0.2742, -0.0145, 0.9362, 833200, 0.0444, -0.3127, -0.1035, -0.0339, -0.0981, 0.1108, 0.3735, 154, 174
1.8750, -0.0078, 1.0544, -0.2586, 0.3176, -0.0148, 0.9364, 833240, 0.0444, -0.3127, -0.1035, -0.0339, -0.0980, 0.1108, 0.3919, 167, 165
1.8900, -0.0078, 1.0544, -0.2586, 0.3176, -0.0148, 0.9364, 833240, 0.0443, -0.3128, -0.1035, -0.0339, -0.0981, 0.1108, 0.3919, 167, 165
1.9060, -0.1333, 0.6303, 0.0591, 0.3318, -0.0154, 0.9367, 833260, 0.0443, -0.3127, -0.1035, -0.0338, -0.0980, 0.1109, 0.3919, 167, 165
1.9220, -0.1333, 0.6303, 0.0591, 0.3318, -0.0154, 0.9367, 833260, 0.0443, -0.3127, -0.1035, -0.0339, -0.0983, 0.1107, 0.3919, 167, 165
1.9530, -0.1347, 0.8942, -0.1852, 0.3618, -0.0140, 0.9381, 833300, 0.0444, -0.3127, -0.1035, -0.0338, -0.0981, 0.1108, 0.3735, 155, 179
1.9690, 0.2701, -0.5077, 0.1500, 0.3693, -0.0136, 0.9392, 833340, 0.0443, -0.3127, -0.1035, -0.0339, -0.0980, 0.1108, 0.3315, 166, 169
1.9840, 0.2701, -0.5077, 0.1500, 0.3693, -0.0136, 0.9392, 833340, 0.0443, -0.3127, -0.1035, -0.0338, -0.0982, 0.1108, 0.3315, 166, 169
2.0150, 0.0594, -0.4153, -0.1822, 0.3595, -0.0138, 0.9395, 833360, 0.0444, -0.3127, -0.1035, -0.0338, -0.0980, 0.1109, 0.3026, 156, 178
2.0310, -0.1801, -1.5127, 0.0414, 0.3225, -0.0141, 0.9404, 833400, 0.0443, -0.3127, -0.1035, -0.0339, -0.0982, 0.1106, 0.2308, 175, 156
2.0470, -0.1801, -1.5127, 0.0414, 0.3225, -0.0141, 0.9404, 833400, 0.0444, -0.3127, -0.1035, -0.0338, -0.0980, 0.1109, 0.2308, 175, 156
2.0620, 0.1583, -1.0859, -0.1986, 0.2981, -0.0136, 0.9406, 833420, 0.0444, -0.3128, -0.1035, -0.0339, -0.0981, 0.1108, 0.1892, 147, 181
2.0940, 0.0134, -2.4403, 0.0040, 0.2260, -0.0120, 0.9416, 833460, 0.0443, -0.3127, -0.1035, -0.0339, -0.0981, 0.1107, 0.0976, 175, 151
2.1090, 0.0134, -2.4403, 0.0040, 0.2260, -0.0120, 0.9416, 833460, 0.0443, -0.3127, -0.1035, -0.0339, -0.0980, 0.1109, 0.0976, 175, 151
2.1250, 0.3768, -2.1674, -0.0793, 0.1874, -0.0124, 0.9418, 833480, 0.0443, -0.3128, -0.1035, -0.0339, -0.0981, 0.1108, 0.0493, 166, 159
2.1400, 0.3768, -2.1674, -0.0793, 0.1874, -0.0124, 0.9418, 833480, 0.0444, -0.3127, -0.1035, -0.0339, -0.0980, 0.1108, 0.0493, 166, 159
2.1720, -0.3075, -1.9024, 0.0556, 0.1484, -0.0127, 0.9423, 833500, 0.0443, -0.3128, -0.1035, -0.0338, -0.0981, 0.1108, 0.0000, 160, 163
2.1870, 0.8321, -2.6163, -0.1349, 0.0581, -0.0108, 0.9427, 833540, 0.0444, -0.3128, -0.1035, -0.0339, -0.0981, 0.1108, -0.0976, 150, 172
2.2030, 0.8321, -2.6163, -0.1349, 0.0581, -0.0108, 0.9427, 833540, 0.0444, -0.3127, -0.1035, -0.0339, -0.0980, 0.1108, -0.0976, 150, 172
2.2340, -0.2166, -2.1731, 0.0951, 0.0115, -0.0098, 0.9435, 833560, 0.0443, -0.3127, -0.1035, -0.0339, -0.0982, 0.1107, -0.1446, 169, 152
2.2500, -0.1271, -1.5334, -0.1567, -0.1148, -0.0108, 0.9439, 833620, 0.0443, -0.3128, -0.1035, -0.0339, -0.0979, 0.1108, -0.2688, 150, 172
2.2650, -0.1271, -1.5334, -0.1567, -0.1148, -0.0108, 0.9439, 833620, 0.0444, -0.3127, -0.1035, -0.0339, -0.0981, 0.1107, -0.2688, 150, 172
2.2810, 0.0005, -2.1900, 0.1113, -0.1522, -0.0110, 0.9440, 833640, 0.0444, -0.3127, -0.1035, -0.0338, -0.0981, 0.1108, -0.3026, 155, 169
2.3120, -0.0016, -1.8070, -0.1591, -0.2367, -0.0117, 0.9449, 833680, 0.0443, -0.3127, -0.1035, -0.0338, -0.0981, 0.1108, -0.3553, 166, 161
2.3280, -0.0016, -1.8070, -0.1591, -0.2367, -0.0117, 0.9449, 833680, 0.0443, -0.3127, -0.1035, -0.0339, -0.0981, 0.1108, -0.3553, 166, 161
2.3430, -0.3147, -1.5665, 0.0043, -0.2777, -0.0110, 0.9444, 833700, 0.0443, -0.3127, -0.1035, -0.0339, -0.0981, 0.1108, -0.3735, 166, 163
2.3750, -0.0626, -1.2982, 0.2989, -0.3068, -0.0113, 0.9451, 833720, 0.0443, -0.3127, -0.1034, -0.0338, -0.0983, 0.1108, -0.3857, 168, 163
2.3900, -0.0626, -1.2982, 0.2989, -0.3068, -0.0113, 0.9451, 833720, 0.0443, -0.3127, -0.1035, -0.0338, -0.0981, 0.1109, -0.3857, 168, 163
2.4060, 0.1029, -0.6547, -0.1570, -0.3396, -0.0117, 0.9453, 833760, 0.0443, -0.3127, -0.1035, -0.0340, -0.0982, 0.1107, -0.3919, 160, 173
2.4220, 0.1029, -0.6547, -0.1570, -0.3396, -0.0117, 0.9453, 833760, 0.0443, -0.3127, -0.1035, -0.0339, -0.0981, 0.1109, -0.3919, 160, 173
2.4530, -0.1726, -0.6738, -0.0086, -0.3711, -0.0122, 0.9467, 833800, 0.0443, -0.3127, -0.1035, -0.0338, -0.0981, 0.1107, -0.3735, 179, 155
2.4680, 0.1306, -0.3967, -0.0570, -0.3800, -0.0133, 0.9474, 833820, 0.0444, -0.3127, -0.1035, -0.0339, -0.0981, 0.1108, -0.3553, 185, 149
2.4840, 0.1306, -0.3967, -0.0570, -0.3800, -0.0133, 0.9474, 833820, 0.0444, -0.3127, -0.1035, -0.0338, -0.0980, 0.1109, -0.3553, 185, 149
2.5150, -0.0470, 0.5233, 0.2182, -0.3698, -0.0131, 0.9482, 833860, 0.0443, -0.3127, -0.1035, -0.0339, -0.0983, 0.1107, -0.3026, 170, 165
2.5310, -0.0637, 0.6625, 0.0363, -0.3547, -0.0133, 0.9495, 833880, 0.0444, -0.3127, -0.1035, -0.0338, -0.0980, 0.1108, -0.2688, 181, 152
2.5460, -0.0637, 0.6625, 0.0363, -0.3547, -0.0133, 0.9495, 833880, 0.0443, -0.3127, -0.1035, -0.0338, -0.0981, 0.1108, -0.2688, 181, 152
2.5620, 0.2441, 1.6772, -0.0059, -0.3039, -0.0150, 0.9493, 833920, 0.0443, -0.3127, -0.1035, -0.0338, -0.0982, 0.1108, -0.1892, 169, 162
2.5930, 0.2424, 1.6140, 0.0395, -0.2403, -0.0155, 0.9502, 833960, 0.0443, -0.3127, -0.1035, -0.0338, -0.0979, 0.1109, -0.0976, 170, 157
2.6090, 0.2424, 1.6140, 0.0395, -0.2403, -0.0155, 0.9502, 833960, 0.0443, -0.3127, -0.1035, -0.0340, -0.0982, 0.1107, -0.0976, 170, 157
2.6250, 0.1376, 2.3739, -0.1511, -0.2002, -0.0147, 0.9500, 833980, 0.0444, -0.3127, -0.1035, -0.0339, -0.0980, 0.1110, -0.0493, 160, 165
2.6560, -0.1594, 2.6693, 0.0435, -0.1138, -0.0147, 0.9512, 834020, 0.0443, -0.3128, -0.1035, -0.0339, -0.0981, 0.1107, 0.0493, 160, 162
2.6710, -0.1594, 2.6693, 0.0435, -0.1138, -0.0147, 0.9512, 834020, 0.0443, -0.3127, -0.1035, -0.0339, -0.0981, 0.1109, 0.0493, 160, 162
2.6870, -0.1924, 2.4198, -0.2462, -0.0695, -0.0148, 0.9510, 834040, 0.0444, -0.3127, -0.1035, -0.0339, -0.0980, 0.1108, 0.0976, 162, 160
2.7030, -0.1924, 2.4198, -0.2462, -0.0695, -0.0148, 0.9510, 834040, 0.0443, -0.3127, -0.1035, -0.0339, -0.0982, 0.1107, 0.0976, 162, 160
2.7340, 0.0575, 2.0882, 0.1927, 0.0169, -0.0129, 0.9526, 834080, 0.0443, -0.3127, -0.1035, -0.0337, -0.0981, 0.1109, 0.1892, 168, 153
2.7500, 0.3661, 2.4050, 0.0027, 0.1126, -0.0129, 0.9533, 834120, 0.0443, -0.3127, -0.1035, -0.0339, -0.0980, 0.1108, 0.2688, 164, 159
2.7650, 0.3661, 2.4050, 0.0027, 0.1126, -0.0129, 0.9533, 834120, 0.0443, -0.3127, -0.1035, -0.0340, -0.0980, 0.1108, 0.2688, 164, 159
2.7810, 0.1967, 1.8890, 0.1403, 0.1566, -0.0126, 0.9543, 834140, 0.0443, -0.3127, -0.1034, -0.0338, -0.0981, 0.1108, 0.3026, 159, 164
2.8120, 0.2728, 1.8363, -0.0527, 0.2332, -0.0122, 0.9547, 834180, 0.0443, -0.3128, -0.1035, -0.0339, -0.0981, 0.1107, 0.3553, 162, 165
2.8280, 0.2728, 1.8363, -0.0527, 0.2332, -0.0122, 0.9547, 834180, 0.0443, -0.3127, -0.1035, -0.0339, -0.0980, 0.1109, 0.3553, 162, 165
2.8430, 0.2115, 1.6406, 0.1169, 0.2698, -0.0113, 0.9552, 834200, 0.0444, -0.3127, -0.1034, -0.0338, -0.0981, 0.1108, 0.3735, 155, 173
2.8750, 0.1384, 1.3049, -0.0903, 0.3299, -0.0119, 0.9563, 834240, 0.0444, -0.3128, -0.1035, -0.0339, -0.0981, 0.1107, 0.3919, 161, 171
2.8900, 0.1384, 1.3049, -0.0903, 0.3299, -0.0119, 0.9563, 834240, 0.0443, -0.3127, -0.1034, -0.0338, -0.0981, 0.1107, 0.3919, 161, 171
2.9060, -0.2693, 0.9268, 0.0185, 0.3669, -0.0110, 0.9575, 834280, 0.0443, -0.3128, -0.1035, -0.0339, -0.0981, 0.1108, 0.3857, 157, 177
2.9210, -0.2693, 0.9268, 0.0185, 0.3669, -0.0110, 0.9575, 834280, 0.0444, -0.3127, -0.1035, -0.0339, -0.0980, 0.1108, 0.3857, 157, 177
2.9530, 0.1220, 0.5448, -0.0683, 0.3791, -0.0108, 0.9573, 834300, 0.0443, -0.3127, -0.1035, -0.0339, -0.0981, 0.1108, 0.3735, 156, 179
2.9680, 0.1220, 0.5448, -0.0683, 0.3791, -0.0108, 0.9573, 834300, 0.0443, -0.3128, -0.1035, -0.0338, -0.0981, 0.1108, 0.3735, 156, 179
2.9840, 0.4085, -0.4645, 0.0489, 0.3780, -0.0098, 0.9584, 834360, 0.0443, -0.3127, -0.1034, -0.0339, -0.0981, 0.1107, 0.3026, 151, 183
3.0150, 0.4085, -0.4645, 0.0489, 0.3780, -0.0098, 0.9584, 834360, 0.0443, -0.3127, -0.1035, -0.0339, -0.0981, 0.1109, 0.3026, 151, 183
3.0310, 0.4481, -1.4033, 0.1771, 0.3611, -0.0080, 0.9589, 834380, 0.0443, -0.3127, -0.1035, -0.0339, -0.0982, 0.1108, 0.2688, 166, 168
3.0460, 0.4481, -1.4033, 0.1771, 0.3611, -0.0080, 0.9589, 834380, 0.0443, -0.3127, -0.1035, -0.0338, -0.0981, 0.1109, 0.2688, 166, 168
3.0620, 0.2032, -1.5044, 0.0723, 0.3110, -0.0099, 0.9591, 834420, 0.0443, -0.3127, -0.1035, -0.0339, -0.0980, 0.1108, 0.1892, 159, 172
3.0930, 0.7795, -2.2685, 0.1927, 0.2766, -0.0084, 0.9603, 834440, 0.0443, -0.3127, -0.1035, -0.0339, -0.0982, 0.1108, 0.1446, 173, 155
3.1090, 0.7795, -2.2685, 0.1927, 0.2766, -0.0084, 0.9603, 834440, 0.0443, -0.3127, -0.1035, -0.0338, -0.0980, 0.1108, 0.1446, 173, 155
3.1250, 0.0344, -2.4470, 0.2750, 0.2084, -0.0068, 0.9603, 834480, 0.0443, -0.3127, -0.1035, -0.0338, -0.0983, 0.1106, 0.0493, 158, 168
3.1560, -0.4378, -1.9696, -0.2344, 0.1079, -0.0044, 0.9599, 834520, 0.0443, -0.3127, -0.1035, -0.0339, -0.0982, 0.1109, -0.0493, 171, 151
3.1710, -0.4378, -1.9696, -0.2344, 0.1079, -0.0044, 0.9599, 834520, 0.0443, -0.3128, -0.1035, -0.0338, -0.0981, 0.1107, -0.0493, 171, 151
3.1870, 0.1462, -2.0148, -0.1430, 0.0700, -0.0051, 0.9599, 834540, 0.0443, -0.3127, -0.1035, -0.0338, -0.0982, 0.1108, -0.0976, 138, 181
3.2030, 0.1462, -2.0148, -0.1430, 0.0700, -0.0051, 0.9599, 834540, 0.0444, -0.3127, -0.1035, -0.0338, -0.0981, 0.1109, -0.0976, 138, 181
3.2340, 0.4392, -3.2824, 0.0417, -0.0096, -0.0030, 0.9612, 834580, 0.0443, -0.3127, -0.1035, -0.0338, -0.0982, 0.1108, -0.1892, 169, 152
3.2490, -0.0156, -2.6679, -0.2142, -0.0644, -0.0024, 0.9605, 834600, 0.0444, -0.3127, -0.1035, -0.0339, -0.0981, 0.1109, -0.2308, 169, 152
3.2650, -0.0156, -2.6679, -0.2142, -0.0644, -0.0024, 0.9605, 834600, 0.0444, -0.3127, -0.1034, -0.0338, -0.0979, 0.1108, -0.2308, 169, 152
3.2810, -0.4806, -1.8565, 0.2892, -0.1669, -0.0019, 0.9603, 834640, 0.0443, -0.3128, -0.1035, -0.0339, -0.0981, 0.1109, -0.3026, 160, 164
3.3120, -0.3596, -1.1318, -0.1986, -0.2258, -0.0014, 0.9601, 834680, 0.0444, -0.3127, -0.1035, -0.0339, -0.0980, 0.1109, -0.3553, 156, 170
3.3280, -0.3596, -1.1318, -0.1986, -0.2258, -0.0014, 0.9601, 834680, 0.0444, -0.3127, -0.1035, -0.0338, -0.0982, 0.1108, -0.3553, 156, 170
3.3430, 0.1997, -1.5794, -0.3285, -0.2613, -0.0005, 0.9598, 834700, 0.0443, -0.3127, -0.1035, -0.0339, -0.0981, 0.1107, -0.3735, 163, 165
3.3740, 0.2658, -2.1554, 0.1881, -0.3362, 0.0007, 0.9599, 834740, 0.0443, -0.3127, -0.1034, -0.0338, -0.0980, 0.1108, -0.3919, 185, 145
3.3900, 0.2658, -2.1554, 0.1881, -0.3362, 0.0007, 0.9599, 834740, 0.0443, -0.3127, -0.1035, -0.0339, -0.0981, 0.1108, -0.3919, 185, 145
3.4060, -0.1704, -0.9555, -0.0548, -0.3597, -0.0002, 0.9605, 834760, 0.0443, -0.3127, -0.1035, -0.0338, -0.0980, 0.1108, -0.3919, 176, 157
3.4210, -0.1704, -0.9555, -0.0548, -0.3597, -0.0002, 0.9605, 834760, 0.0444, -0.3127, -0.1035, -0.0338, -0.0980, 0.1107, -0.3919, 176, 157
3.4530, 0.0564, 0.1395, -0.1430, -0.3679, 0.0000, 0.9605, 834800, 0.0443, -0.3127, -0.1035, -0.0339, -0.0980, 0.1108, -0.3735, 163, 171
3.4680, -0.0237, -0.1352, 0.0841, -0.3721, 0.0005, 0.9617, 834840, 0.0443, -0.3127, -0.1034, -0.0339, -0.0981, 0.1108, -0.3315, 187, 146
3.4840, -0.0237, -0.1352, 0.0841, -0.3721, 0.0005, 0.9617, 834840, 0.0443, -0.3127, -0.1035, -0.0338, -0.0981, 0.1108, -0.3315, 187, 146
3.5150, -0.0591, 0.5384, -0.2795, -0.3704, 0.0002, 0.9617, 834860, 0.0443, -0.3127, -0.1035, -0.0339, -0.0981, 0.1109, -0.3026, 175, 160
3.5310, -0.2204, 1.1294, 0.1357, -0.3389, 0.0000, 0.9631, 834900, 0.0443, -0.3127, -0.1035, -0.0339, -0.0980, 0.1108, -0.2308, 171, 161
3.5460, -0.2204, 1.1294, 0.1357, -0.3389, 0.0000, 0.9631, 834900, 0.0443, -0.3127, -0.1035, -0.0339, -0.0982, 0.1107, -0.2308, 171, 161
3.5620, -0.1056, 1.3684, 0.1812, -0.3086, -0.0010, 0.9641, 834920, 0.0443, -0.3127, -0.1034, -0.0339, -0.0981, 0.1109, -0.1892, 173, 157
3.5930, -0.1881, 2.0102, 0.0164, -0.2402, -0.0017, 0.9650, 834960, 0.0443, -0.3128, -0.1035, -0.0338, -0.0982, 0.1108, -0.0976, 165, 163
3.6090, -0.1881, 2.0102, 0.0164, -0.2402, -0.0017, 0.9650, 834960, 0.0444, -0.3127, -0.1035, -0.0339, -0.0982, 0.1108, -0.0976, 165, 163
3.6240, 0.2723, 1.0367, 0.3430, -0.2070, -0.0012, 0.9667, 834980, 0.0443, -0.3127, -0.1035, -0.0338, -0.0980, 0.1109, -0.0493, 180, 144
3.6400, 0.2723, 1.0367, 0.3430, -0.2070, -0.0012, 0.9667, 834980, 0.0443, -0.3128, -0.1035, -0.0339, -0.0981, 0.1107, -0.0493, 180, 144
3.6710, 0.4792, 2.5179, -0.1107, -0.1175, -0.0026, 0.9687, 835020, 0.0443, -0.3127, -0.1035, -0.0338, -0.0981, 0.1108, 0.0493, 151, 171
3.6870, -0.3112, 1.7637, 0.1242, -0.0176, -0.0033, 0.9702, 835060, 0.0444, -0.3128, -0.1035, -0.0339, -0.0980, 0.1108, 0.1446, 173, 148
3.7020, -0.3112, 1.7637, 0.1242, -0.0176, -0.0033, 0.9702, 835060, 0.0443, -0.3127, -0.1034, -0.0339, -0.0981, 0.1107, 0.1446, 173, 148
3.7340, -0.3112, 1.7637, 0.1242, -0.0176, -0.0033, 0.9702, 835060, 0.0443, -0.3127, -0.1035, -0.0339, -0.0979, 0.1108, 0.1446, 173, 148
3.7490, 0.0589, 2.3164, -0.1048, 0.0621, -0.0044, 0.9715, 835100, 0.0443, -0.3128, -0.1035, -0.0339, -0.0981, 0.1108, 0.2308, 170, 151
3.7650, 0.0589, 2.3164, -0.1048, 0.0621, -0.0044, 0.9715, 835100, 0.0443, -0.3127, -0.1034, -0.0338, -0.0981, 0.1108, 0.2308, 170, 151
3.7810, -0.0997, 1.7893, 0.2424, 0.1543, -0.0047, 0.9732, 835140, 0.0444, -0.3127, -0.1035, -0.0339, -0.0980, 0.1108, 0.3026, 169, 154
3.8120, 0.0761, 2.1137, 0.0043, 0.1969, -0.0045, 0.9741, 835160, 0.0443, -0.3127, -0.1034, -0.0338, -0.0982, 0.1108, 0.3315, 163, 162
3.8270, 0.0761, 2.1137, 0.0043, 0.1969, -0.0045, 0.9741, 835160, 0.0443, -0.3127, -0.1035, -0.0339, -0.0980, 0.1109, 0.3315, 163, 162
3.8430, 0.1658, 1.0405, 0.2540, 0.2616, -0.0049, 0.9758, 835200, 0.0443, -0.3127, -0.1035, -0.0338, -0.0982, 0.1107, 0.3735, 169, 159
3.8740, -0.0521, 1.6586, -0.1059, 0.2925, -0.0045, 0.9770, 835220, 0.0443, -0.3127, -0.1035, -0.0339, -0.0981, 0.1108, 0.3857, 159, 171
3.8900, -0.0521, 1.6586, -0.1059, 0.2925, -0.0045, 0.9770, 835220, 0.0444, -0.3127, -0.1035, -0.0339, -0.0979, 0.1108, 0.3857, 159, 171
3.9060, 0.3545, 0.6682, 0.1234, 0.3454, -0.0044, 0.9772, 835260, 0.0443, -0.3127, -0.1034, -0.0339, -0.0981, 0.1107, 0.3919, 160, 173
3.9210, 0.3545, 0.6682, 0.1234, 0.3454, -0.0044, 0.9772, 835260, 0.0443, -0.3127, -0.1035, -0.0338, -0.0981, 0.1109, 0.3919, 160, 173
3.9520, -0.4169, 0.8784, -0.3182, 0.3707, -0.0052, 0.9772, 835300, 0.0444, -0.3127, -0.1035, -0.0339, -0.0980, 0.1107, 0.3735, 151, 182
3.9680, 0.2274, -0.2301, 0.3013, 0.3754, -0.0049, 0.9776, 835320, 0.0443, -0.3127, -0.1035, -0.0338, -0.0982, 0.1108, 0.3553, 164, 171
3.9840, 0.2274, -0.2301, 0.3013, 0.3754, -0.0049, 0.9776, 835320, 0.0443, -0.3127, -0.1034, -0.0338, -0.0982, 0.1108, 0.3553, 164, 171
4.0150, -0.4155, 0.3126, -0.3551, 0.3688, -0.0031, 0.9781, 835360, 0.0443, -0.3127, -0.1035, -0.0338, -0.0981, 0.1108, 0.3026, 147, 186
4.0310, 0.1545, -1.0894, 0.2217, 0.3555, -0.0019, 0.9788, 835380, 0.0443, -0.3127, -0.1035, -0.0338, -0.0981, 0.1107, 0.2688, 164, 170
4.0460, 0.1545, -1.0894, 0.2217, 0.3555, -0.0019, 0.9788, 835380, 0.0443, -0.3127, -0.1035, -0.0338, -0.0981, 0.1108, 0.2688, 164, 170
4.0620, -0.2927, -1.4299, -0.1769, 0.2995, -0.0007, 0.9788, 835420, 0.0443, -0.3128, -0.1035, -0.0339, -0.0982, 0.1108, 0.1892, 162, 168
4.0930, 0.2661, -1.9057, -0.0564, 0.2236, 0.0000, 0.9790, 835460, 0.0444, -0.3127, -0.1035, -0.0339, -0.0981, 0.1107, 0.0976, 170, 156
4.1090, 0.2661, -1.9057, -0.0564, 0.2236, 0.0000, 0.9790, 835460, 0.0443, -0.3127, -0.1035, -0.0338, -0.0981, 0.1108, 0.0976, 170, 156
4.1240, 0.2661, -1.9057, -0.0564, 0.2236, 0.0000, 0.9790, 835460, 0.0444, -0.3127, -0.1035, -0.0339, -0.0981, 0.1108, 0.0976, 170, 156
4.1560, 0.1091, -2.4314, -0.0121, 0.0970, 0.0002, 0.9783, 835520, 0.0444, -0.3127, -0.1035, -0.0339, -0.0979, 0.1109, -0.0493, 167, 155
4.1710, 0.1091, -2.4314, -0.0121, 0.0970, 0.0002, 0.9783, 835520, 0.0443, -0.3127, -0.1035, -0.0339, -0.0981, 0.1108, -0.0493, 167, 155
4.1870, -0.1645, -1.7379, -0.1868, 0.0518, 0.0010, 0.9779, 835540, 0.0444, -0.3126, -0.1035, -0.0338, -0.0981, 0.1108, -0.0976, 162, 160
4.2020, -0.1645, -1.7379, -0.1868, 0.0518, 0.0010, 0.9779, 835540, 0.0443, -0.3127, -0.1035, -0.0339, -0.0980, 0.1109, -0.0976, 162, 160
4.2340, 0.2269, -2.6687, 0.1720, -0.0415, 0.0010, 0.9774, 835580, 0.0444, -0.3128, -0.1035, -0.0340, -0.0981, 0.1108, -0.1892, 166, 156
4.2490, -0.1212, -1.4302, -0.3586, -0.1288, 0.0005, 0.9767, 835620, 0.0443, -0.3127, -0.1035, -0.0338, -0.0980, 0.1109, -0.2688, 150, 172
4.2650, -0.1212, -1.4302, -0.3586, -0.1288, 0.0005, 0.9767, 835620, 0.0443, -0.3128, -0.1035, -0.0339, -0.0980, 0.1108, -0.2688, 150, 172
4.2800, -0.0486, -1.8583, 0.1812, -0.1684, 0.0010, 0.9763, 835640, 0.0444, -0.3127, -0.1034, -0.0339, -0.0980, 0.1109, -0.3026, 162, 162
4.3120, -0.0769, -1.2291, -0.2285, -0.2452, -0.0002, 0.9765, 835680, 0.0443, -0.3127, -0.1035, -0.0339, -0.0980, 0.1108, -0.3553, 157, 170
4.3270, -0.0769, -1.2291, -0.2285, -0.2452, -0.0002, 0.9765, 835680, 0.0443, -0.3127, -0.1035, -0.0338, -0.0982, 0.1107, -0.3553, 157, 170
4.3430, 0.1849, -1.8371, -0.0567, -0.2822, -0.0005, 0.9765, 835700, 0.0444, -0.3127, -0.1035, -0.0338, -0.0980, 0.1108, -0.3735, 170, 159
4.3740, -0.2312, -1.5729, 0.2228, -0.3386, -0.0017, 0.9774, 835740, 0.0443, -0.3127, -0.1035, -0.0339, -0.0981, 0.1108, -0.3919, 176, 156
4.3900, -0.2312, -1.5729, 0.2228, -0.3386, -0.0017, 0.9774, 835740, 0.0444, -0.3127, -0.1034, -0.0339, -0.0981, 0.1108, -0.3919, 176, 156
4.4050, 0.3091, -0.8676, -0.0180, -0.3552, -0.0024, 0.9777, 835760, 0.0443, -0.3127, -0.1035, -0.0338, -0.0980, 0.1109, -0.3919, 176, 157
4.4210, 0.3091, -0.8676, -0.0180, -0.3552, -0.0024, 0.9777, 835760, 0.0443, -0.3127, -0.1035, -0.0338, -0.0982, 0.1107, -0.3919, 176, 157
4.4520, -0.0081, -0.3336, -0.3204, -0.3662, -0.0026, 0.9777, 835780, 0.0444, -0.3127, -0.1034, -0.0338, -0.0981, 0.1107, -0.3857, 169, 165
4.4680, 0.1124, 0.2244, -0.0820, -0.3787, -0.0038, 0.9791, 835840, 0.0443, -0.3127, -0.1035, -0.0338, -0.0982, 0.1107, -0.3315, 176, 159
4.4840, 0.1124, 0.2244, -0.0820, -0.3787, -0.0038, 0.9791, 835840, 0.0444, -0.3127, -0.1035, -0.0339, -0.0981, 0.1109, -0.3315, 176, 159
4.5150, 0.2766, 0.7569, -0.1384, -0.3719, -0.0031, 0.9797, 835860, 0.0443, -0.3128, -0.1035, -0.0339, -0.0980, 0.1108, -0.3026, 174, 161
4.5300, -0.1976, 0.6424, 0.2419, -0.3571, -0.0040, 0.9807, 835880, 0.0443, -0.3127, -0.1035, -0.0338, -0.0982, 0.1107, -0.2688, 178, 155
4.5460, -0.1976, 0.6424, 0.2419, -0.3571, -0.0040, 0.9807, 835880, 0.0443, -0.3127, -0.1035, -0.0339, -0.0982, 0.1108, -0.2688, 178, 155
4.5620, -0.0529, 1.7288, -0.3005, -0.3087, -0.0058, 0.9823, 835920, 0.0443, -0.3127, -0.1034, -0.0339, -0.0981, 0.1106, -0.1892, 164, 166
4.5930, 0.3166, 1.6874, 0.0691, -0.2786, -0.0051, 0.9826, 835940, 0.0443, -0.3127, -0.1035, -0.0338, -0.0981, 0.1109, -0.1446, 168, 161
4.6080, 0.3166, 1.6874, 0.0691, -0.2786, -0.0051, 0.9826, 835940, 0.0443, -0.3127, -0.1034, -0.0338, -0.0982, 0.1107, -0.1446, 168, 161
4.6240, -0.0551, 2.6418, -0.0301, -0.2044, -0.0052, 0.9844, 835980, 0.0443, -0.3127, -0.1035, -0.0339, -0.0980, 0.1108, -0.0493, 155, 170
4.6550, -0.1097, 1.7710, 0.1336, -0.1176, -0.0042, 0.9861, 836020, 0.0443, -0.3127, -0.1035, -0.0339, -0.0982, 0.1109, 0.0493, 166, 157
4.6710, -0.1097, 1.7710, 0.1336, -0.1176, -0.0042, 0.9861, 836020, 0.0444, -0.3127, -0.1035, -0.0339, -0.0981, 0.1108, 0.0493, 166, 157
4.6870, -0.0430, 2.1078, 0.2024, -0.0752, -0.0049, 0.9873, 836040, 0.0444, -0.3127, -0.1035, -0.0339, -0.0980, 0.1107, 0.0976, 173, 149
4.7020, -0.0430, 2.1078, 0.2024, -0.0752, -0.0049, 0.9873, 836040, 0.0443, -0.3127, -0.1035, -0.0339, -0.0981, 0.1108, 0.0976, 173, 149
4.7330, -0.2126, 2.9069, -0.1586, 0.0241, -0.0051, 0.9887, 836080, 0.0443, -0.3127, -0.1035, -0.0338, -0.0979, 0.1108, 0.1892, 160, 162
4.7490, 0.4128, 1.7422, 0.3244, 0.0700, -0.0052, 0.9906, 836100, 0.0443, -0.3127, -0.1035, -0.0339, -0.0983, 0.1108, 0.2308, 160, 162
4.7650, 0.4128, 1.7422, 0.3244, 0.0700, -0.0052, 0.9906, 836100, 0.0444, -0.3127, -0.1034, -0.0339, -0.0979, 0.1108, 0.2308, 160, 162
4.7960, -0.2900, 2.3489, -0.2131, 0.1532, -0.0058, 0.9917, 836140, 0.0443, -0.3127, -0.1035, -0.0338, -0.0980, 0.1108, 0.3026, 158, 166
4.8120, 0.1040, 1.6414, 0.1567, 0.2327, -0.0044, 0.9934, 836180, 0.0443, -0.3127, -0.1035, -0.0338, -0.0982, 0.1107, 0.3553, 166, 161
4.8270, 0.1040, 1.6414, 0.1567, 0.2327, -0.0044, 0.9934, 836180, 0.0444, -0.3127, -0.1035, -0.0338, -0.0979, 0.1109, 0.3553, 166, 161
4.8430, -0.5064, 1.9425, -0.1027, 0.2709, -0.0061, 0.9938, 836200, 0.0443, -0.3127, -0.1035, -0.0339, -0.0982, 0.1107, 0.3735, 154, 174
4.8740, 0.3032, 0.8561, 0.1231, 0.3292, -0.0051, 0.9938, 836240, 0.0444, -0.3127, -0.1035, -0.0339, -0.0980, 0.1109, 0.3919, 163, 169
4.8900, 0.3032, 0.8561, 0.1231, 0.3292, -0.0051, 0.9938, 836240, 0.0444, -0.3127, -0.1035, -0.0339, -0.0980, 0.1108, 0.3919, 163, 169
4.9050, -0.4604, 1.3619, -0.0831, 0.3485, -0.0061, 0.9945, 836260, 0.0443, -0.3127, -0.1035, -0.0338, -0.0982, 0.1108, 0.3919, 156, 176
4.9210, -0.4604, 1.3619, -0.0831, 0.3485, -0.0061, 0.9945, 836260, 0.0443, -0.3127, -0.1035, -0.0337, -0.0980, 0.1109, 0.3919, 156, 176
4.9520, 0.2717, 0.2940, 0.1677, 0.3786, -0.0054, 0.9954, 836300, 0.0443, -0.3127, -0.1035, -0.0338, -0.0982, 0.1107, 0.3735, 160, 175
4.9680, -0.5384, 0.5497, -0.0468, 0.3843, -0.0061, 0.9961, 836320, 0.0444, -0.3127, -0.1035, -0.0338, -0.0980, 0.1108, 0.3553, 149, 185
4.9830, -0.5384, 0.5497, -0.0468, 0.3843, -0.0061, 0.9961, 836320, 0.0443, -0.3128, -0.1035, -0.0338, -0.0982, 0.1107, 0.3553, 149, 185
5.0150, 0.3532, -0.9550, 0.1782, 0.3725, -0.0035, 0.9964, 836360, 0.0443, -0.3128, -0.1035, -0.0339, -0.0981, 0.1108, 0.3026, 162, 173
5.0300, 0.3690, -1.0660, -0.0231, 0.3407, -0.0016, 0.9969, 836400, 0.0444, -0.3127, -0.1035, -0.0338, -0.0980, 0.1108, 0.2308, 155, 177
5.0460, 0.3690, -1.0660, -0.0231, 0.3407, -0.0016, 0.9969, 836400, 0.0443, -0.3128, -0.1035, -0.0338, -0.0983, 0.1107, 0.2308, 155, 177
5.0620, 0.6994, -1.7879, 0.2696, 0.3143, 0.0002, 0.9983, 836420, 0.0444, -0.3127, -0.1035, -0.0339, -0.0980, 0.1109, 0.1892, 159, 172
5.0930, 0.0196, -2.0169, -0.0398, 0.2450, -0.0026, 0.9980, 836460, 0.0443, -0.3127, -0.1035, -0.0338, -0.0981, 0.1108, 0.0976, 158, 169
5.1080, 0.0196, -2.0169, -0.0398, 0.2450, -0.0026, 0.9980, 836460, 0.0443, -0.3128, -0.1035, -0.0338, -0.0981, 0.1108, 0.0976, 158, 169
5.1240, 0.5214, -2.5631, 0.1411, 0.2042, -0.0007, 0.9980, 836480, 0.0444, -0.3127, -0.1035, -0.0339, -0.0981, 0.1109, 0.0493, 165, 161
5.1550, -0.4249, -2.1782, -0.0043, 0.1161, -0.0012, 0.9969, 836520, 0.0443, -0.3128, -0.1035, -0.0339, -0.0981, 0.1107, -0.0493, 155, 168
5.1710, -0.4249, -2.1782, -0.0043, 0.1161, -0.0012, 0.9969, 836520, 0.0444, -0.3127, -0.1035, -0.0339, -0.0981, 0.1109, -0.0493, 155, 168
5.1870, 0.6268, -2.9657, 0.1500, 0.0679, 0.0007, 0.9971, 836540, 0.0443, -0.3127, -0.1035, -0.0339, -0.0981, 0.1107, -0.0976, 172, 150
5.2020, 0.6268, -2.9657, 0.1500, 0.0679, 0.0007, 0.9971, 836540, 0.0443, -0.3128, -0.1035, -0.0339, -0.0980, 0.1109, -0.0976, 172, 150
5.2330, -0.0941, -2.6967, -0.1161, 0.0192, 0.0019, 0.9973, 836560, 0.0443, -0.3127, -0.1035, -0.0339, -0.0981, 0.1109, -0.1446, 168, 154
5.2490, 0.1828, -2.7838, -0.0043, -0.0820, 0.0017, 0.9962, 836600, 0.0443, -0.3127, -0.1035, -0.0338, -0.0981, 0.1108, -0.2308, 158, 164
5.2650, 0.1828, -2.7838, -0.0043, -0.0820, 0.0017, 0.9962, 836600, 0.0443, -0.3127, -0.1035, -0.0339, -0.0980, 0.1108, -0.2308, 158, 164
5.2960, 0.0105, -1.3721, -0.1476, -0.1653, 0.0009, 0.9961, 836640, 0.0443, -0.3127, -0.1035, -0.0339, -0.0981, 0.1108, -0.3026, 159, 165
5.3110, -0.0935, -1.8941, -0.1881, -0.2044, 0.0014, 0.9957, 836660, 0.0443, -0.3127, -0.1035, -0.0338, -0.0981, 0.1109, -0.3315, 164, 161
5.3270, -0.0935, -1.8941, -0.1881, -0.2044, 0.0014, 0.9957, 836660, 0.0443, -0.3127, -0.1035, -0.0339, -0.0981, 0.1108, -0.3315, 164, 161
5.3430, 0.2860, -2.2400, -0.0874, -0.2834, 0.0003, 0.9964, 836700, 0.0443, -0.3127, -0.1035, -0.0338, -0.0980, 0.1109, -0.3735, 182, 145
5.3740, 0.1387, -1.2568, 0.1363, -0.3456, 0.0010, 0.9961, 836740, 0.0443, -0.3127, -0.1035, -0.0338, -0.0981, 0.1107, -0.3919, 178, 154
5.3900, 0.1387, -1.2568, 0.1363, -0.3456, 0.0010, 0.9961, 836740, 0.0443, -0.3127, -0.1034, -0.0339, -0.0981, 0.1108, -0.3919, 178, 154
5.4050, -0.3233, -0.8504, 0.1156, -0.3653, 0.0005, 0.9962, 836760, 0.0444, -0.3127, -0.1035, -0.0339, -0.0980, 0.1107, -0.3919, 176, 158
5.4360, 0.1554, -0.2527, -0.2489, -0.3850, 0.0007, 0.9959, 836800, 0.0443, -0.3127, -0.1035, -0.0339, -0.0982, 0.1108, -0.3735, 172, 164
5.4520, 0.1554, -0.2527, -0.2489, -0.3850, 0.0007, 0.9959, 836800, 0.0444, -0.3127, -0.1035, -0.0338, -0.0979, 0.1108, -0.3735, 172, 164
5.4680, -0.0688, -0.3486, 0.0331, -0.3915, 0.0000, 0.9962, 836820, 0.0443, -0.3128, -0.1035, -0.0339, -0.0981, 0.1108, -0.3553, 179, 157
5.4830, -0.0688, -0.3486, 0.0331, -0.3915, 0.0000, 0.9962, 836820, 0.0443, -0.3127, -0.1035, -0.0338, -0.0981, 0.1108, -0.3553, 179, 157
5.5150, -0.0277, 0.6112, -0.2478, -0.3918, -0.0009, 0.9973, 836860, 0.0443, -0.3127, -0.1035, -0.0338, -0.0981, 0.1109, -0.3026, 181, 155
5.5300, 0.1481, 1.9468, -0.0145, -0.3473, -0.0014, 0.9983, 836900, 0.0443, -0.3128, -0.1035, -0.0338, -0.0982, 0.1108, -0.2308, 163, 170
5.5460, 0.1481, 1.9468, -0.0145, -0.3473, -0.0014, 0.9983, 836900, 0.0444, -0.3127, -0.1035, -0.0339, -0.0980, 0.1109, -0.2308, 163, 170
5.5610, -0.4540, 1.6046, 0.2441, -0.3098, -0.0024, 0.9990, 836920, 0.0443, -0.3127, -0.1035, -0.0338, -0.0982, 0.1108, -0.1892, 162, 169
5.5930, 0.0559, 1.9124, -0.2521, -0.2368, -0.0021, 1.0009, 836960, 0.0443, -0.3127, -0.1035, -0.0338, -0.0981, 0.1108, -0.0976, 162, 165
5.6080, 0.0559, 1.9124, -0.2521, -0.2368, -0.0021, 1.0009, 836960, 0.0444, -0.3127, -0.1035, -0.0338, -0.0980, 0.1108, -0.0976, 162, 165
5.6240, -0.0234, 1.9594, 0.2371, -0.1979, -0.0033, 1.0018, 836980, 0.0443, -0.3127, -0.1035, -0.0338, -0.0982, 0.1108, -0.0493, 158, 167
5.6550, -0.2317, 2.8093, -0.0516, -0.1108, -0.0045, 1.0039, 837020, 0.0443, -0.3127, -0.1035, -0.0338, -0.0981, 0.1109, 0.0493, 157, 165
5.6710, -0.2317, 2.8093, -0.0516, -0.1108, -0.0045, 1.0039, 837020, 0.0443, -0.3127, -0.1035, -0.0339, -0.0981, 0.1107, 0.0493, 157, 165
5.6860, 0.4034, 2.1443, -0.0366, -0.0634, -0.0031, 1.0046, 837040, 0.0444, -0.3127, -0.1035, -0.0338, -0.0981, 0.1108, 0.0976, 159, 163
5.7020, 0.4034, 2.1443, -0.0366, -0.0634, -0.0031, 1.0046, 837040, 0.0443, -0.3127, -0.1035, -0.0338, -0.0981, 0.1108, 0.0976, 159, 163
5.7330, -0.1177, 2.2742, 0.1914, 0.0227, -0.0047, 1.0065, 837080, 0.0443, -0.3128, -0.1035, -0.0339, -0.0981, 0.1108, 0.1892, 170, 151
5.7490, 0.1521, 2.7706, -0.1812, 0.1215, -0.0047, 1.0081, 837120, 0.0443, -0.3127, -0.1035, -0.0339, -0.0981, 0.1109, 0.2688, 146, 176
5.7640, 0.1521, 2.7706, -0.1812, 0.1215, -0.0047, 1.0081, 837120, 0.0444, -0.3127, -0.1035, -0.0338, -0.0980, 0.1108, 0.2688, 146, 176
5.7960, 0.0645, 2.0984, 0.1398, 0.1677, -0.0054, 1.0088, 837140, 0.0443, -0.3128, -0.1035, -0.0339, -0.0981, 0.1109, 0.3026, 159, 165
5.8110, 0.1043, 1.4721, -0.1750, 0.2313, -0.0047, 1.0098, 837180, 0.0443, -0.3127, -0.1034, -0.0338, -0.0982, 0.1108, 0.3553, 169, 157
5.8270, 0.1043, 1.4721, -0.1750, 0.2313, -0.0047, 1.0098, 837180, 0.0443, -0.3127, -0.1035, -0.0338, -0.0982, 0.1107, 0.3553, 169, 157
5.8430, 0.1043, 1.4721, -0.1750, 0.2313, -0.0047, 1.0098, 837180, 0.0444, -0.3127, -0.1035, -0.0339, -0.0980, 0.1108, 0.3553, 169, 157
5.8740, 0.1572, 1.2326, 0.3677, 0.2897, -0.0042, 1.0112, 837220, 0.0444, -0.3127, -0.1034, -0.0339, -0.0980, 0.1108, 0.3857, 162, 167
5.8890, -0.0435, 1.5189, 0.1102, 0.3227, -0.0037, 1.0119, 837240, 0.0444, -0.3127, -0.1035, -0.0339, -0.0981, 0.1109, 0.3919, 161, 170
5.9050, -0.0435, 1.5189, 0.1102, 0.3227, -0.0037, 1.0119, 837240, 0.0443, -0.3127, -0.1034, -0.0338, -0.0982, 0.1107, 0.3919, 161, 170
5.9360, 0.1959, 0.6924, -0.0277, 0.3683, -0.0044, 1.0118, 837280, 0.0444, -0.3127, -0.1035, -0.0339, -0.0980, 0.1108, 0.3857, 151, 182
5.9520, 0.0796, -0.3035, 0.2285, 0.3733, -0.0042, 1.0126, 837300, 0.0443, -0.3127, -0.1034, -0.0338, -0.0982, 0.1107, 0.3735, 173, 162
5.9680, 0.0796, -0.3035, 0.2285, 0.3733, -0.0042, 1.0126, 837300, 0.0443, -0.3127, -0.1035, -0.0338, -0.0980, 0.1109, 0.3735, 173, 162
5.9830, -0.1744, 0.1207, -0.2607, 0.3690, -0.0047, 1.0126, 837340, 0.0443, -0.3127, -0.1035, -0.0339, -0.0979, 0.1107, 0.3315, 155, 179
6.0140, 0.0398, -0.7574, 0.3129, 0.3627, -0.0044, 1.0133, 837360, 0.0443, -0.3127, -0.1034, -0.0338, -0.0982, 0.1108, 0.3026, 165, 169
6.0300, 0.0398, -0.7574, 0.3129, 0.3627, -0.0044, 1.0133, 837360, 0.0443, -0.3128, -0.1035, -0.0339, -0.0981, 0.1109, 0.3026, 165, 169
6.0460, -0.0339, -0.8824, -0.1777, 0.3358, -0.0033, 1.0137, 837400, 0.0443, -0.3127, -0.1034, -0.0339, -0.0981, 0.1107, 0.2308, 157, 175
6.0770, -0.1438, -1.6777, -0.1693, 0.2759, -0.0016, 1.0142, 837440, 0.0443, -0.3127, -0.1035, -0.0340, -0.0981, 0.1108, 0.1446, 174, 155
6.0930, -0.1438, -1.6777, -0.1693, 0.2759, -0.0016, 1.0142, 837440, 0.0443, -0.3127, -0.1035, -0.0338, -0.0981, 0.1108, 0.1446, 174, 155
6.1080, 0.2830, -2.3559, -0.1529, 0.2382, -0.0021, 1.0137, 837460, 0.0443, -0.3127, -0.1035, -0.0339, -0.0981, 0.1109, 0.0976, 170, 157
6.1240, 0.2830, -2.3559, -0.1529, 0.2382, -0.0021, 1.0137, 837460, 0.0444, -0.3127, -0.1035, -0.0339, -0.0979, 0.1109, 0.0976, 170, 157
6.1550, -0.0083, -2.2696, 0.0231, 0.1471, -0.0010, 1.0135, 837500, 0.0443, -0.3127, -0.1035, -0.0338, -0.0982, 0.1107, -0.0000, 180, 142
6.1710, 0.4349, -1.8823, -0.2250, 0.1042, 0.0000, 1.0132, 837520, 0.0443, -0.3127, -0.1035, -0.0338, -0.0981, 0.1108, -0.0493, 145, 176
6.1860, 0.4349, -1.8823, -0.2250, 0.1042, 0.0000, 1.0132, 837520, 0.0443, -0.3127, -0.1035, -0.0338, -0.0981, 0.1108, -0.0493, 145, 176
6.2020, 0.0312, -2.3319, 0.2032, 0.0302, 0.0000, 1.0132, 837560, 0.0443, -0.3128, -0.1035, -0.0338, -0.0981, 0.1109, -0.1446, 151, 170
6.2330, 0.5811, -2.8636, -0.2742, -0.0642, -0.0003, 1.0125, 837600, 0.0443, -0.3127, -0.1035, -0.0339, -0.0981, 0.1108, -0.2308, 152, 169
6.2490, 0.5811, -2.8636, -0.2742, -0.0642, -0.0003, 1.0125, 837600, 0.0443, -0.3127, -0.1035, -0.0338, -0.0981, 0.1108, -0.2308, 152, 169
6.2640, -0.2868, -2.2879, -0.0607, -0.1171, 0.0005, 1.0121, 837620, 0.0443, -0.3127, -0.1035, -0.0338, -0.0981, 0.1108, -0.2688, 175, 147
6.2960, 0.4454, -2.0559, 0.0449, -0.2039, 0.0010, 1.0123, 837660, 0.0443, -0.3127, -0.1034, -0.0338, -0.0980, 0.1108, -0.3315, 163, 163
6.3110, 0.4454, -2.0559, 0.0449, -0.2039, 0.0010, 1.0123, 837660, 0.0444, -0.3128, -0.1035, -0.0339, -0.0981, 0.1108, -0.3315, 163, 163
6.3270, -0.0997, -0.9681, -0.3599, -0.2368, 0.0012, 1.0112, 837680, 0.0443, -0.3127, -0.1035, -0.0339, -0.0981, 0.1107, -0.3553, 153, 173
6.3420, -0.0997, -0.9681, -0.3599, -0.2368, 0.0012, 1.0112, 837680, 0.0444, -0.3127, -0.1035, -0.0338, -0.0979, 0.1109, -0.3553, 153, 173
6.3740, 0.2180, -2.3164, 0.2626, -0.3035, 0.0014, 1.0111, 837720, 0.0444, -0.3127, -0.1035, -0.0338, -0.0982, 0.1107, -0.3857, 181, 148
6.3890, 0.1086, -1.0730, -0.0951, -0.3601, 0.0000, 1.0104, 837760, 0.0443, -0.3127, -0.1034, -0.0338, -0.0980, 0.1107, -0.3919, 181, 152
6.4050, 0.1086, -1.0730, -0.0951, -0.3601, 0.0000, 1.0104, 837760, 0.0443, -0.3128, -0.1035, -0.0339, -0.0981, 0.1108, -0.3919, 181, 152
6.4360, 0.1951, -0.5400, -0.2381, -0.3763, 0.0014, 1.0104, 837780, 0.0443, -0.3127, -0.1034, -0.0338, -0.0981, 0.1107, -0.3857, 175, 160
6.4520, 0.0395, -0.3131, 0.2548, -0.3871, 0.0009, 1.0116, 837820, 0.0443, -0.3127, -0.1035, -0.0338, -0.0980, 0.1109, -0.3553, 184, 151
6.4670, 0.0395, -0.3131, 0.2548, -0.3871, 0.0009, 1.0116, 837820, 0.0443, -0.3128, -0.1035, -0.0338, -0.0981, 0.1108, -0.3553, 184, 151
6.4830, -0.3876, 0.5577, -0.1164, -0.3850, 0.0007, 1.0119, 837840, 0.0444, -0.3127, -0.1034, -0.0339, -0.0979, 0.1109, -0.3315, 177, 159
6.5140, 0.0022, 0.8746, 0.0535, -0.3662, 0.0014, 1.0121, 837880, 0.0443, -0.3128, -0.1035, -0.0339, -0.0980, 0.1108, -0.2688, 175, 159
6.5300, 0.0022, 0.8746, 0.0535, -0.3662, 0.0014, 1.0121, 837880, 0.0444, -0.3127, -0.1035, -0.0338, -0.0981, 0.1108, -0.2688, 175, 159
6.5460, -0.3443, 0.8811, 0.2244, -0.3473, 0.0005, 1.0130, 837900, 0.0444, -0.3127, -0.1035, -0.0338, -0.0979, 0.1108, -0.2308, 179, 153
6.5770, 0.1177, 1.5648, -0.0129, -0.3236, 0.0000, 1.0137, 837920, 0.0443, -0.3127, -0.1035, -0.0338, -0.0982, 0.1108, -0.1892, 178, 152
6.5920, 0.1177, 1.5648, -0.0129, -0.3236, 0.0000, 1.0137, 837920, 0.0443, -0.3127, -0.1034, -0.0338, -0.0980, 0.1108, -0.1892, 178, 152
6.6080, 0.2551, 2.0169, 0.2341, -0.2468, -0.0009, 1.0146, 837960, 0.0443, -0.3127, -0.1035, -0.0338, -0.0981, 0.1108, -0.0976, 161, 166
6.6240, 0.2551, 2.0169, 0.2341, -0.2468, -0.0009, 1.0146, 837960, 0.0444, -0.3127, -0.1034, -0.0339, -0.0981, 0.1107, -0.0976, 161, 166
6.6550, -0.0788, 1.8205, 0.0890, -0.2035, -0.0005, 1.0161, 837980, 0.0444, -0.3127, -0.1035, -0.0339, -0.0980, 0.1109, -0.0493, 168, 157
6.6710, 0.0919, 1.9479, 0.1441, -0.0752, -0.0024, 1.0191, 838040, 0.0443, -0.3127, -0.1035, -0.0338, -0.0982, 0.1107, 0.0976, 162, 160
6.6860, 0.0919, 1.9479, 0.1441, -0.0752, -0.0024, 1.0191, 838040, 0.0443, -0.3127, -0.1034, -0.0338, -0.0981, 0.1108, 0.0976, 162, 160
6.7020, 0.0564, 2.0933, 0.1812, -0.0304, -0.0033, 1.0203, 838060, 0.0443, -0.3127, -0.1035, -0.0339, -0.0981, 0.1108, 0.1446, 170, 151
6.7330, -0.1806, 2.9300, -0.1505, 0.0688, -0.0019, 1.0212, 838100, 0.0444, -0.3127, -0.1035, -0.0339, -0.0981, 0.1108, 0.2308, 156, 165
6.7490, -0.1806, 2.9300, -0.1505, 0.0688, -0.0019, 1.0212, 838100, 0.0443, -0.3127, -0.1035, -0.0338, -0.0980, 0.1108, 0.2308, 156, 165
6.7640, -0.0992, 2.0508, -0.0570, 0.1550, -0.0016, 1.0242, 838140, 0.0443, -0.3127, -0.1035, -0.0339, -0.0981, 0.1108, 0.3026, 172, 151
6.7960, -0.0992, 2.0508, -0.0570, 0.1550, -0.0016, 1.0242, 838140, 0.0443, -0.3127, -0.1035, -0.0338, -0.0981, 0.1109, 0.3026, 172, 151
6.8110, -0.0992, 2.0508, -0.0570, 0.1550, -0.0016, 1.0242, 838140, 0.0443, -0.3127, -0.1035, -0.0338, -0.0981, 0.1107, 0.3026, 172, 151
6.8270, 0.2838, 1.8256, 0.2411, 0.2328, -0.0021, 1.0254, 838180, 0.0443, -0.3127, -0.1035, -0.0338, -0.0981, 0.1108, 0.3553, 162, 164
6.8420, 0.2838, 1.8256, 0.2411, 0.2328, -0.0021, 1.0254, 838180, 0.0443, -0.3127, -0.1035, -0.0338, -0.0982, 0.1108, 0.3553, 162, 164
6.8740, -0.3215, 1.6304, -0.1228, 0.3007, -0.0021, 1.0268, 838220, 0.0444, -0.3127, -0.1035, -0.0338, -0.0979, 0.1108, 0.3857, 157, 173
6.8890, 0.2653, 1.4700, 0.0417, 0.3309, -0.0016, 1.0271, 838240, 0.0443, -0.3127, -0.1035, -0.0338, -0.0981, 0.1108, 0.3919, 154, 178
6.9050, 0.2653, 1.4700, 0.0417, 0.3309, -0.0016, 1.0271, 838240, 0.0443, -0.3127, -0.1035, -0.0339, -0.0981, 0.1108, 0.3919, 154, 178
6.9360, -0.4932, 0.8684, -0.1798, 0.3735, -0.0005, 1.0280, 838280, 0.0444, -0.3127, -0.1035, -0.0338, -0.0980, 0.1107, 0.3857, 159, 176
6.9520, -0.0183, 0.5212, -0.1000, 0.3824, -0.0005, 1.0283, 838300, 0.0444, -0.3127, -0.1035, -0.0338, -0.0981, 0.1107, 0.3735, 155, 180
6.9670, -0.0183, 0.5212, -0.1000, 0.3824, -0.0005, 1.0283, 838300, 0.0443, -0.3127, -0.1035, -0.0338, -0.0981, 0.1107, 0.3735, 155, 180
6.9830, -0.3709, -0.0871, 0.0320, 0.3885, 0.0000, 1.0299, 838340, 0.0443, -0.3127, -0.1035, -0.0339, -0.0981, 0.1109, 0.3315, 154, 181
7.0140, 0.4800, -1.0638, 0.0949, 0.3756, 0.0014, 1.0299, 838380, 0.0444, -0.3127, -0.1034, -0.0338, -0.0980, 0.1108, 0.2688, 157, 178
7.0300, 0.4800, -1.0638, 0.0949, 0.3756, 0.0014, 1.0299, 838380, 0.0443, -0.3127, -0.1035, -0.0338, -0.0981, 0.1108, 0.2688, 157, 178
7.0450, -0.1675, -1.4998, 0.2123, 0.3560, 0.0023, 1.0304, 838400, 0.0444, -0.3128, -0.1035, -0.0339, -0.0981, 0.1107, 0.2308, 163, 171
7.0770, 0.1468, -1.9057, 0.1709, 0.2939, 0.0005, 1.0296, 838440, 0.0444, -0.3127, -0.1035, -0.0339, -0.0979, 0.1109, 0.1446, 153, 176
7.0920, 0.1468, -1.9057, 0.1709, 0.2939, 0.0005, 1.0296, 838440, 0.0443, -0.3127, -0.1035, -0.0339, -0.0982, 0.1107, 0.1446, 153, 176
7.1080, 0.7590, -3.0418, 0.1785, 0.2515, 0.0024, 1.0301, 838460, 0.0444, -0.3127, -0.1035, -0.0339, -0.0981, 0.1108, 0.0976, 165, 163
7.1240, 0.7590, -3.0418, 0.1785, 0.2515, 0.0024, 1.0301, 838460, 0.0443, -0.3128, -0.1035, -0.0338, -0.0980, 0.1108, 0.0976, 165, 163
7.1550, 0.2919, -2.6424, -0.2811, 0.1555, 0.0014, 1.0283, 838500, 0.0443, -0.3127, -0.1035, -0.0338, -0.0983, 0.1108, 0.0000, 152, 171
7.1700, 0.0051, -2.7870, 0.0841, 0.0614, 0.0024, 1.0290, 838540, 0.0443, -0.3126, -0.1035, -0.0337, -0.0981, 0.1109, -0.0976, 171, 150
7.1860, 0.0051, -2.7870, 0.0841, 0.0614, 0.0024, 1.0290, 838540, 0.0443, -0.3128, -0.1035, -0.0339, -0.0982, 0.1108, -0.0976, 171, 150
7.2170, -0.6354, -1.4611, -0.3876, 0.0187, 0.0012, 1.0273, 838560, 0.0444, -0.3127, -0.1034, -0.0339, -0.0982, 0.1108, -0.1446, 155, 167
7.2330, 0.2201, -2.6792, 0.2191, -0.0831, 0.0014, 1.0270, 838600, 0.0443, -0.3127, -0.1036, -0.0339, -0.0980, 0.1109, -0.2308, 169, 152
7.2490, 0.2201, -2.6792, 0.2191, -0.0831, 0.0014, 1.0270, 838600, 0.0443, -0.3128, -0.1035, -0.0339, -0.0982, 0.1107, -0.2308, 169, 152
7.2640, -0.5720, -2.1949, -0.0374, -0.1321, 0.0012, 1.0275, 838620, 0.0444, -0.3127, -0.1035, -0.0338, -0.0980, 0.1109, -0.2688, 178, 143
7.2950, 0.4540, -2.2467, -0.0035, -0.2166, 0.0010, 1.0264, 838660, 0.0443, -0.3127, -0.1035, -0.0338, -0.0983, 0.1107, -0.3315, 165, 161
7.3110, 0.4540, -2.2467, -0.0035, -0.2166, 0.0010, 1.0264, 838660, 0.0444, -0.3127, -0.1035, -0.0339, -0.0980, 0.1108, -0.3315, 165, 161
7.3270, -0.0645, -2.0632, 0.0500, -0.2854, 0.0000, 1.0270, 838700, 0.0443, -0.3127, -0.1035, -0.0339, -0.0981, 0.1108, -0.3735, 175, 153
7.3420, -0.0645, -2.0632, 0.0500, -0.2854, 0.0000, 1.0270, 838700, 0.0443, -0.3127, -0.1035, -0.0339, -0.0982, 0.1108, -0.3735, 175, 153
7.3730, 0.3559, -1.5084, -0.2182, -0.3182, 0.0009, 1.0264, 838720, 0.0444, -0.3127, -0.1035, -0.0338, -0.0980, 0.1109, -0.3857, 170, 161
7.3890, 0.0215, -1.4055, 0.2610, -0.3770, 0.0012, 1.0266, 838760, 0.0443, -0.3128, -0.1035, -0.0339, -0.0982, 0.1108, -0.3919, 190, 142
7.4050, 0.0215, -1.4055, 0.2610, -0.3770, 0.0012, 1.0266, 838760, 0.0443, -0.3127, -0.1035, -0.0338, -0.0981, 0.1109, -0.3919, 190, 142
7.4360, 0.0425, -0.9332, 0.0194, -0.3969, 0.0017, 1.0270, 838780, 0.0444, -0.3128, -0.1035, -0.0339, -0.0981, 0.1108, -0.3857, 191, 143
7.4520, 0.2502, 0.0621, -0.0177, -0.4081, 0.0014, 1.0268, 838820, 0.0443, -0.3128, -0.1035, -0.0339, -0.0981, 0.1108, -0.3553, 181, 156
7.4670, 0.2502, 0.0621, -0.0177, -0.4081, 0.0014, 1.0268, 838820, 0.0444, -0.3127, -0.1035, -0.0339, -0.0980, 0.1109, -0.3553, 181, 156
7.4830, -0.2591, 0.2626, 0.1836, -0.4028, 0.0002, 1.0280, 838840, 0.0444, -0.3127, -0.1034, -0.0337, -0.0981, 0.1106, -0.3315, 179, 158
7.5140, -0.0951, 0.0314, 0.1583, -0.3950, -0.0005, 1.0290, 838860, 0.0444, -0.3127, -0.1035, -0.0339, -0.0980, 0.1108, -0.3026, 194, 139
7.5300, -0.0951, 0.0314, 0.1583, -0.3950, -0.0005, 1.0290, 838860, 0.0443, -0.3127, -0.1034, -0.0338, -0.0982, 0.1108, -0.3026, 194, 139
7.5450, 0.1062, 1.8906, -0.1683, -0.3587, -0.0003, 1.0296, 838900, 0.0443, -0.3127, -0.1035, -0.0338, -0.0981, 0.1108, -0.2308, 172, 163
7.5770, 0.0151, 2.4110, 0.1247, -0.3201, -0.0009, 1.0308, 838920, 0.0443, -0.3127, -0.1035, -0.0338, -0.0981, 0.1108, -0.1892, 160, 171
7.5920, 0.0151, 2.4110, 0.1247, -0.3201, -0.0009, 1.0308, 838920, 0.0443, -0.3127, -0.1035, -0.0339, -0.0981, 0.1108, -0.1892, 160, 171
7.6080, -0.4115, 2.2293, 0.1575, -0.2325, -0.0021, 1.0331, 838960, 0.0443, -0.3128, -0.1035, -0.0339, -0.0981, 0.1108, -0.0976, 157, 169
7.6230, -0.4115, 2.2293, 0.1575, -0.2325, -0.0021, 1.0331, 838960, 0.0443, -0.3127, -0.1035, -0.0338, -0.0982, 0.1108, -0.0976, 157, 169
7.6550, 0.1137, 1.7597, -0.0215, -0.1573, -0.0010, 1.0348, 839000, 0.0444, -0.3127, -0.1035, -0.0339, -0.0980, 0.1108, -0.0000, 166, 158
7.6700, -0.2924, 1.6764, 0.1946, -0.1218, -0.0021, 1.0359, 839020, 0.0443, -0.3127, -0.1035, -0.0338, -0.0982, 0.1109, 0.0493, 174, 148
7.6860, -0.2924, 1.6764, 0.1946, -0.1218, -0.0021, 1.0359, 839020, 0.0444, -0.3127, -0.1035, -0.0338, -0.0979, 0.1108, 0.0493, 174, 148
7.7170, -0.0465, 2.9767, -0.1062, -0.0225, -0.0019, 1.0379, 839060, 0.0443, -0.3127, -0.1035, -0.0339, -0.0980, 0.1108, 0.1446, 148, 173
7.7330, 0.1559, 2.5768, -0.2524, 0.0316, -0.0024, 1.0379, 839080, 0.0443, -0.3127, -0.1035, -0.0339, -0.0982, 0.1108, 0.1892, 158, 164
7.7480, 0.1559, 2.5768, -0.2524, 0.0316, -0.0024, 1.0379, 839080, 0.0443, -0.3127, -0.1035, -0.0339, -0.0979, 0.1109, 0.1892, 158, 164
7.7640, -0.0094, 1.4815, 0.2217, 0.1103, -0.0007, 1.0399, 839120, 0.0443, -0.3127, -0.1035, -0.0338, -0.0983, 0.1108, 0.2688, 177, 144
7.7950, 0.4833, 1.8038, 0.0097, 0.1866, -0.0007, 1.0407, 839160, 0.0444, -0.3127, -0.1035, -0.0338, -0.0980, 0.1108, 0.3315, 160, 165
7.8110, 0.4833, 1.8038, 0.0097, 0.1866, -0.0007, 1.0407, 839160, 0.0443, -0.3127, -0.1035, -0.0339, -0.0980, 0.1108, 0.3315, 160, 165
7.8270, 0.0172, 2.7262, -0.1384, 0.2313, -0.0009, 1.0418, 839180, 0.0444, -0.3127, -0.1035, -0.0339, -0.0981, 0.1108, 0.3553, 144, 181
7.8420, 0.0172, 2.7262, -0.1384, 0.2313, -0.0009, 1.0418, 839180, 0.0443, -0.3127, -0.1035, -0.0338, -0.0980, 0.1109, 0.3553, 144, 181
7.8730, -0.3182, 1.1498, 0.0951, 0.2997, -0.0037, 1.0428, 839220, 0.0443, -0.3128, -0.1035, -0.0339, -0.0982, 0.1108, 0.3857, 171, 158
7.8890, -0.3182, 1.1498, 0.0951, 0.2997, -0.0037, 1.0428, 839220, 0.0443, -0.3127, -0.1035, -0.0338, -0.0980, 0.1108, 0.3857, 171, 158
7.9050, -0.3182, 1.1498, 0.0951, 0.2997, -0.0037, 1.0428, 839220, 0.0444, -0.3127, -0.1035, -0.0338, -0.0980, 0.1108, 0.3857, 171, 158
7.9360, -0.0589, 0.6967, 0.1285, 0.3513, -0.0035, 1.0434, 839280, 0.0443, -0.3127, -0.1035, -0.0338, -0.0981, 0.1108, 0.3857, 163, 171
7.9510, 0.0083, 0.8120, 0.0769, 0.3697, -0.0026, 1.0441, 839300, 0.0444, -0.3127, -0.1035, -0.0338, -0.0979, 0.1108, 0.3735, 157, 177
7.9670, 0.0083, 0.8120, 0.0769, 0.3697, -0.0026, 1.0441, 839300, 0.0443, -0.3128, -0.1035, -0.0338, -0.0982, 0.1106, 0.3735, 157, 177
7.9830, -0.1930, -0.3193, 0.1296, 0.3843, -0.0021, 1.0439, 839340, 0.0444, -0.3127, -0.1035, -0.0338, -0.0980, 0.1109, 0.3315, 163, 173
8.0140, -0.3491, -0.7236, -0.0836, 0.3737, -0.0026, 1.0435, 839360, 0.0443, -0.3127, -0.1034, -0.0338, -0.0981, 0.1107, 0.3026, 162, 174
8.0300, -0.3491, -0.7236, -0.0836, 0.3737, -0.0026, 1.0435, 839360, 0.0443, -0.3128, -0.1035, -0.0339, -0.0981, 0.1108, 0.3026, 162, 174
8.0450, 0.4352, -1.4619, 0.1814, 0.3360, -0.0009, 1.0432, 839400, 0.0443, -0.3127, -0.1034, -0.0338, -0.0980, 0.1108, 0.2308, 163, 170
8.0760, -0.3322, -1.4256, -0.0191, 0.2855, -0.0010, 1.0432, 839440, 0.0443, -0.3127, -0.1035, -0.0339, -0.0981, 0.1108, 0.1446, 153, 176
8.0920, -0.3322, -1.4256, -0.0191, 0.2855, -0.0010, 1.0432, 839440, 0.0443, -0.3127, -0.1035, -0.0338, -0.0981, 0.1108, 0.1446, 153, 176
8.1080, 0.5827, -2.2895, 0.1301, 0.2487, 0.0000, 1.0427, 839460, 0.0444, -0.3127, -0.1034, -0.0337, -0.0980, 0.1108, 0.0976, 160, 168
8.1230, 0.5827, -2.2895, 0.1301, 0.2487, 0.0000, 1.0427, 839460, 0.0443, -0.3127, -0.1035, -0.0339, -0.0981, 0.1108, 0.0976, 160, 168
8.1550, -0.6515, -1.9696, -0.2543, 0.1621, 0.0021, 1.0416, 839500, 0.0443, -0.3127, -0.1034, -0.0338, -0.0982, 0.1107, 0.0000, 145, 177
8.1700, 0.7612, -3.2402, 0.2070, 0.0637, 0.0031, 1.0418, 839540, 0.0443, -0.3127, -0.1035, -0.0338, -0.0981, 0.1108, -0.0976, 169, 153
8.1860, 0.7612, -3.2402, 0.2070, 0.0637, 0.0031, 1.0418, 839540, 0.0443, -0.3127, -0.1035, -0.0339, -0.0982, 0.1109, -0.0976, 169, 153
8.2170, -0.6050, -1.8110, -0.2887, 0.0141, 0.0021, 1.0413, 839560, 0.0443, -0.3127, -0.1034, -0.0338, -0.0981, 0.1107, -0.1446, 154, 167
8.2330, 0.3962, -2.0849, -0.0089, -0.0297, 0.0040, 1.0411, 839580, 0.0443, -0.3127, -0.1035, -0.0338, -0.0981, 0.1108, -0.1892, 153, 168
8.2480, 0.3962, -2.0849, -0.0089, -0.0297, 0.0040, 1.0411, 839580, 0.0444, -0.3127, -0.1034, -0.0339, -0.0980, 0.1108, -0.1892, 153, 168
8.2640, -0.4878, -2.4153, -0.0616, -0.1210, 0.0052, 1.0409, 839620, 0.0444, -0.3127, -0.1035, -0.0338, -0.0979, 0.1109, -0.2688, 163, 159
8.2950, 0.7332, -2.5908, -0.0392, -0.2194, 0.0068, 1.0406, 839660, 0.0444, -0.3127, -0.1034, -0.0339, -0.0980, 0.1106, -0.3315, 168, 157
8.3110, 0.7332, -2.5908, -0.0392, -0.2194, 0.0068, 1.0406, 839660, 0.0443, -0.3127, -0.1035, -0.0338, -0.0982, 0.1108, -0.3315, 168, 157
8.3260, -0.3774, -0.7381, 0.3473, -0.2759, 0.0059, 1.0409, 839700, 0.0444, -0.3127, -0.1035, -0.0339, -0.0980, 0.1107, -0.3735, 154, 174
8.3420, -0.3774, -0.7381, 0.3473, -0.2759, 0.0059, 1.0409, 839700, 0.0443, -0.3127, -0.1035, -0.0339, -0.0981, 0.1108, -0.3735, 154, 174
8.3730, 0.0280, -1.2525, -0.0005, -0.2911, 0.0056, 1.0418, 839720, 0.0443, -0.3127, -0.1035, -0.0339, -0.0979, 0.1109, -0.3857, 160, 169
8.3890, -0.1586, -0.6453, -0.3328, -0.3114, 0.0058, 1.0413, 839740, 0.0444, -0.3127, -0.1035, -0.0339, -0.0982, 0.1107, -0.3919, 160, 171
8.4040, -0.1586, -0.6453, -0.3328, -0.3114, 0.0058, 1.0413, 839740, 0.0444, -0.3127, -0.1035, -0.0339, -0.0981, 0.1109, -0.3919, 160, 171
8.4360, 0.2594, -1.6576, 0.2053, -0.3646, 0.0070, 1.0420, 839780, 0.0444, -0.3127, -0.1035, -0.0339, -0.0979, 0.1109, -0.3857, 186, 146
8.4510, -0.3486, -0.7897, 0.1035, -0.3871, 0.0080, 1.0421, 839800, 0.0443, -0.3127, -0.1035, -0.0339, -0.0982, 0.1108, -0.3735, 190, 144
8.4670, -0.3486, -0.7897, 0.1035, -0.3871, 0.0080, 1.0421, 839800, 0.0444, -0.3127, -0.1035, -0.0338, -0.0980, 0.1109, -0.3735, 190, 144
8.4830, 0.5169, 0.4077, -0.1804, -0.3953, 0.0084, 1.0432, 839840, 0.0444, -0.3127, -0.1035, -0.0338, -0.0982, 0.1107, -0.3315, 180, 156
8.5140, 0.2096, 0.9843, -0.2236, -0.3817, 0.0080, 1.0437, 839860, 0.0443, -0.3127, -0.1035, -0.0339, -0.0981, 0.1108, -0.3026, 170, 166
8.5290, 0.2096, 0.9843, -0.2236, -0.3817, 0.0080, 1.0437, 839860, 0.0444, -0.3127, -0.1035, -0.0338, -0.0979, 0.1109, -0.3026, 170, 166
8.5450, -0.3809, 1.0238, 0.1250, -0.3407, 0.0068, 1.0460, 839900, 0.0443, -0.3127, -0.1035, -0.0337, -0.0982, 0.1108, -0.2308, 175, 158
8.5760, -0.3392, 1.1415, -0.0067, -0.3166, 0.0052, 1.0470, 839920, 0.0444, -0.3127, -0.1035, -0.0338, -0.0980, 0.1108, -0.1892, 175, 156
8.5920, -0.3392, 1.1415, -0.0067, -0.3166, 0.0052, 1.0470, 839920, 0.0443, -0.3127, -0.1035, -0.0337, -0.0981, 0.1108, -0.1892, 175, 156
8.6080, -0.2010, 2.3013, 0.0702, -0.2508, 0.0059, 1.0488, 839960, 0.0443, -0.3127, -0.1035, -0.0338, -0.0981, 0.1109, -0.0976, 166, 162
8.6230, -0.2010, 2.3013, 0.0702, -0.2508, 0.0059, 1.0488, 839960, 0.0443, -0.3127, -0.1034, -0.0338, -0.0981, 0.1108, -0.0976, 166, 162
8.6540, -0.3913, 2.6585, -0.0341, -0.1578, 0.0058, 1.0526, 840000, 0.0443, -0.3128, -0.1035, -0.0337, -0.0982, 0.1108, 0.0000, 162, 162
8.6700, 0.0298, 2.2419, -0.1820, -0.1141, 0.0061, 1.0540, 840020, 0.0443, -0.3127, -0.1034, -0.0338, -0.0982, 0.1107, 0.0493, 166, 157
8.6860, 0.0298, 2.2419, -0.1820, -0.1141, 0.0061, 1.0540, 840020, 0.0444, -0.3127, -0.1035, -0.0339, -0.0980, 0.1107, 0.0493, 166, 157
8.7170, -0.0798, 1.9290, 0.1169, -0.0321, 0.0063, 1.0564, 840060, 0.0443, -0.3127, -0.1035, -0.0339, -0.0981, 0.1108, 0.1446, 170, 152
8.7330, -0.1161, 2.4817, 0.1755, 0.0166, 0.0028, 1.0573, 840080, 0.0443, -0.3127, -0.1035, -0.0339, -0.0980, 0.1107, 0.1892, 164, 158
8.7480, -0.1161, 2.4817, 0.1755, 0.0166, 0.0028, 1.0573, 840080, 0.0443, -0.3127, -0.1035, -0.0339, -0.0982, 0.1108, 0.1892, 164, 158
8.7640, -0.1244, 2.6013, -0.1809, 0.1141, 0.0035, 1.0592, 840120, 0.0443, -0.3127, -0.1034, -0.0338, -0.0981, 0.1107, 0.2688, 160, 163
8.7950, -0.1769, 1.9118, 0.1793, 0.1943, 0.0042, 1.0612, 840160, 0.0444, -0.3127, -0.1035, -0.0338, -0.0979, 0.1108, 0.3315, 173, 152
8.8110, -0.1769, 1.9118, 0.1793, 0.1943, 0.0042, 1.0612, 840160, 0.0444, -0.3127, -0.1035, -0.0339, -0.0980, 0.1108, 0.3315, 173, 152
8.8260, -0.2666, 1.8898, -0.2610, 0.2271, 0.0042, 1.0615, 840180, 0.0443, -0.3127, -0.1034, -0.0338, -0.0982, 0.1108, 0.3553, 163, 163
8.8570, 0.1325, 1.4616, 0.2153, 0.2911, 0.0051, 1.0620, 840220, 0.0443, -0.3128, -0.1035, -0.0339, -0.0981, 0.1108, 0.3857, 162, 168
8.8730, 0.1325, 1.4616, 0.2153, 0.2911, 0.0051, 1.0620, 840220, 0.0443, -0.3127, -0.1034, -0.0338, -0.0982, 0.1107, 0.3857, 162, 168
8.8890, 0.2096, 1.3009, -0.0887, 0.3510, 0.0038, 1.0617, 840260, 0.0443, -0.3127, -0.1035, -0.0339, -0.0979, 0.1108, 0.3919, 151, 182
8.9040, 0.2096, 1.3009, -0.0887, 0.3510, 0.0038, 1.0617, 840260, 0.0443, -0.3128, -0.1035, -0.0339, -0.0982, 0.1108, 0.3919, 151, 182
8.9360, 0.3991, 0.3561, 0.2075, 0.3658, 0.0054, 1.0620, 840280, 0.0443, -0.3127, -0.1035, -0.0339, -0.0981, 0.1108, 0.3857, 163, 171
8.9510, -0.4634, 0.4948, -0.3137, 0.3719, 0.0038, 1.0613, 840320, 0.0443, -0.3128, -0.1035, -0.0337, -0.0981, 0.1109, 0.3553, 156, 179
8.9670, -0.4634, 0.4948, -0.3137, 0.3719, 0.0038, 1.0613, 840320, 0.0443, -0.3127, -0.1035, -0.0338, -0.0981, 0.1107, 0.3553, 156, 179
8.9820, 0.2623, -0.3860, 0.1403, 0.3702, 0.0045, 1.0617, 840340, 0.0444, -0.3127, -0.1035, -0.0338, -0.0979, 0.1109, 0.3315, 163, 172
9.0140, -0.4537, -0.4620, -0.3177, 0.3489, 0.0044, 1.0610, 840380, 0.0443, -0.3128, -0.1035, -0.0338, -0.0981, 0.1109, 0.2688, 157, 176
9.0290, -0.4537, -0.4620, -0.3177, 0.3489, 0.0044, 1.0610, 840380, 0.0443, -0.3127, -0.1035, -0.0339, -0.0980, 0.1108, 0.2688, 157, 176
9.0450, -0.4537, -0.4620, -0.3177, 0.3489, 0.0044, 1.0610, 840380, 0.0444, -0.3127, -0.1035, -0.0339, -0.0979, 0.1110, 0.2688, 157, 176
9.0760, 0.3225, -1.4622, 0.2475, 0.3056, 0.0042, 1.0592, 840420, 0.0443, -0.3127, -0.1034, -0.0338, -0.0982, 0.1108, 0.1892, 161, 169
9.0920, -0.5910, -1.7062, -0.0228, 0.2733, 0.0052, 1.0598, 840440, 0.0444, -0.3127, -0.1035, -0.0338, -0.0980, 0.1109, 0.1446, 172, 157
9.1070, -0.5910, -1.7062, -0.0228, 0.2733, 0.0052, 1.0598, 840440, 0.0443, -0.3127, -0.1035, -0.0338, -0.0982, 0.1107, 0.1446, 172, 157
9.1230, 0.2481, -2.2983, 0.2432, 0.1958, 0.0049, 1.0578, 840480, 0.0444, -0.3127, -0.1035, -0.0339, -0.0981, 0.1108, 0.0493, 167, 159
9.1540, 0.3123, -3.0606, 0.1967, 0.1482, 0.0068, 1.0575, 840500, 0.0443, -0.3127, -0.1034, -0.0338, -0.0980, 0.1107, 0.0000, 177, 146
9.1700, 0.3123, -3.0606, 0.1967, 0.1482, 0.0068, 1.0575, 840500, 0.0444, -0.3127, -0.1035, -0.0338, -0.0981, 0.1108, 0.0000, 177, 146
9.1860, 0.3400, -2.2088, -0.0212, 0.0651, 0.0049, 1.0561, 840540, 0.0443, -0.3127, -0.1035, -0.0338, -0.0982, 0.1108, -0.0976, 156, 166
9.2170, -0.7926, -2.0062, -0.2580, -0.0347, 0.0084, 1.0556, 840580, 0.0443, -0.3127, -0.1035, -0.0339, -0.0981, 0.1108, -0.1892, 171, 149
9.2320, -0.7926, -2.0062, -0.2580, -0.0347, 0.0084, 1.0556, 840580, 0.0443, -0.3127, -0.1035, -0.0339, -0.0980, 0.1109, -0.1892, 171, 149
9.2480, 0.0680, -2.1798, -0.2400, -0.0864, 0.0094, 1.0544, 840600, 0.0444, -0.3127, -0.1035, -0.0339, -0.0980, 0.1108, -0.2308, 158, 164
9.2640, 0.0680, -2.1798, -0.2400, -0.0864, 0.0094, 1.0544, 840600, 0.0443, -0.3127, -0.1035, -0.0338, -0.0980, 0.1108, -0.2308, 158, 164
9.2950, -0.6015, -1.5003, 0.0441, -0.1703, 0.0101, 1.0530, 840640, 0.0443, -0.3127, -0.1035, -0.0338, -0.0982, 0.1108, -0.3026, 160, 164
9.3110, 0.0159, -2.2916, 0.1037, -0.2072, 0.0094, 1.0530, 840660, 0.0443, -0.3127, -0.1035, -0.0338, -0.0980, 0.1108, -0.3315, 172, 153
9.3260, 0.0159, -2.2916, 0.1037, -0.2072, 0.0094, 1.0530, 840660, 0.0443, -0.3127, -0.1035, -0.0338, -0.0981, 0.1108, -0.3315, 172, 153
9.3570, -0.2435, -1.7836, -0.0723, -0.2861, 0.0106, 1.0524, 840700, 0.0443, -0.3127, -0.1035, -0.0338, -0.0981, 0.1108, -0.3735, 178, 151
9.3730, 0.1244, -1.3568, 0.1957, -0.3463, 0.0110, 1.0526, 840740, 0.0443, -0.3127, -0.1035, -0.0338, -0.0980, 0.1109, -0.3919, 174, 159
9.3890, 0.1244, -1.3568, 0.1957, -0.3463, 0.0110, 1.0526, 840740, 0.0443, -0.3127, -0.1035, -0.0338, -0.0981, 0.1108, -0.3919, 174, 159
9.4040, -0.2758, -0.6101, -0.1341, -0.3606, 0.0103, 1.0519, 840760, 0.0443, -0.3127, -0.1035, -0.0338, -0.0980, 0.1109, -0.3919, 170, 164
9.4350, 0.1564, 0.1371, -0.0422, -0.3718, 0.0110, 1.0523, 840800, 0.0443, -0.3127, -0.1035, -0.0339, -0.0981, 0.1107, -0.3735, 166, 169
9.4510, 0.1564, 0.1371, -0.0422, -0.3718, 0.0110, 1.0523, 840800, 0.0444, -0.3127, -0.1035, -0.0338, -0.0981, 0.1108, -0.3735, 166, 169
9.4670, 0.0035, -0.3352, 0.2653, -0.3716, 0.0110, 1.0531, 840820, 0.0443, -0.3127, -0.1035, -0.0338, -0.0980, 0.1108, -0.3553, 173, 162
9.4820, 0.0035, -0.3352, 0.2653, -0.3716, 0.0110, 1.0531, 840820, 0.0443, -0.3127, -0.1035, -0.0338, -0.0982, 0.1107, -0.3553, 173, 162
9.5140, 0.0919, 0.6413, -0.2975, -0.3646, 0.0108, 1.0540, 840860, 0.0443, -0.3127, -0.1035, -0.0338, -0.0980, 0.1109, -0.3026, 174, 161
9.5290, -0.1529, 0.8010, 0.1075, -0.3400, 0.0103, 1.0556, 840900, 0.0443, -0.3128, -0.1035, -0.0338, -0.0981, 0.1107, -0.2308, 181, 151
9.5450, -0.1529, 0.8010, 0.1075, -0.3400, 0.0103, 1.0556, 840900, 0.0443, -0.3127, -0.1034, -0.0339, -0.0981, 0.1107, -0.2308, 181, 151
9.5760, -0.0820, 1.3901, 0.1180, -0.3157, 0.0084, 1.0566, 840920, 0.0444, -0.3127, -0.1035, -0.0338, -0.0979, 0.1109, -0.1892, 180, 150
9.5920, 0.0922, 1.8790, -0.2333, -0.2527, 0.0093, 1.0580, 840960, 0.0443, -0.3127, -0.1035, -0.0338, -0.0982, 0.1107, -0.0976, 170, 157
9.6070, 0.0922, 1.8790, -0.2333, -0.2527, 0.0093, 1.0580, 840960, 0.0444, -0.3127, -0.1035, -0.0338, -0.0980, 0.1109, -0.0976, 170, 157
9.6230, 0.3172, 1.7369, 0.1494, -0.2114, 0.0098, 1.0594, 840980, 0.0443, -0.3128, -0.1035, -0.0339, -0.0981, 0.1107, -0.0493, 164, 162
9.6540, 0.0591, 2.8238, 0.0108, -0.1175, 0.0077, 1.0619, 841020, 0.0443, -0.3127, -0.1034, -0.0339, -0.0982, 0.1107, 0.0493, 153, 169
9.6700, 0.0591, 2.8238, 0.0108, -0.1175, 0.0077, 1.0619, 841020, 0.0444, -0.3127, -0.1035, -0.0338, -0.0980, 0.1108, 0.0493, 153, 169
9.6850, -0.0478, 1.6296, 0.1376, -0.0246, 0.0080, 1.0652, 841060, 0.0443, -0.3127, -0.1035, -0.0339, -0.0981, 0.1107, 0.1446, 176, 145
9.7170, -0.2255, 2.0820, 0.1113, 0.0150, 0.0063, 1.0666, 841080, 0.0443, -0.3127, -0.1035, -0.0339, -0.0981, 0.1108, 0.1892, 175, 145
9.7320, -0.2255, 2.0820, 0.1113, 0.0150, 0.0063, 1.0666, 841080, 0.0443, -0.3127, -0.1035, -0.0339, -0.0980, 0.1107, 0.1892, 175, 145
9.7480, 0.2408, 2.0236, 0.1312, 0.0576, 0.0072, 1.0676, 841100, 0.0443, -0.3127, -0.1035, -0.0339, -0.0981, 0.1109, 0.2308, 169, 152
9.7640, 0.2408, 2.0236, 0.1312, 0.0576, 0.0072, 1.0676, 841100, 0.0443, -0.3128, -0.1035, -0.0338, -0.0981, 0.1108, 0.2308, 169, 152
9.7950, 0.0218, 2.6177, -0.2475, 0.1103, 0.0077, 1.0680, 841120, 0.0443, -0.3127, -0.1035, -0.0339, -0.0981, 0.1108, 0.2688, 156, 167
9.8100, -0.0513, 1.3888, -0.2217, 0.2300, 0.0084, 1.0701, 841180, 0.0444, -0.3127, -0.1035, -0.0339, -0.0981, 0.1109, 0.3553, 171, 155
9.8260, -0.0513, 1.3888, -0.2217, 0.2300, 0.0084, 1.0701, 841180, 0.0443, -0.3127, -0.1035, -0.0339, -0.0981, 0.1108, 0.3553, 171, 155
9.8570, -0.1470, 1.4511, -0.1962, 0.2524, 0.0077, 1.0706, 841200, 0.0443, -0.3127, -0.1035, -0.0339, -0.0980, 0.1108, 0.3735, 170, 157
9.8730, 0.0417, 1.5323, 0.2204, 0.3061, 0.0086, 1.0711, 841240, 0.0443, -0.3127, -0.1035, -0.0338, -0.0981, 0.1107, 0.3919, 159, 171
9.8890, 0.0417, 1.5323, 0.2204, 0.3061, 0.0086, 1.0711, 841240, 0.0443, -0.3127, -0.1035, -0.0338, -0.0980, 0.1109, 0.3919, 159, 171
9.9040, 0.0417, 1.5323, 0.2204, 0.3061, 0.0086, 1.0711, 841240, 0.0443, -0.3127, -0.1035, -0.0338, -0.0981, 0.1109, 0.3919, 159, 171
9.9350, 0.4763, 0.7131, -0.1078, 0.3580, 0.0089, 1.0711, 841280, 0.0443, -0.3127, -0.1034, -0.0338, -0.0980, 0.1108, 0.3857, 161, 172
9.9510, 0.3080, 0.3059, 0.0586, 0.3688, 0.0087, 1.0709, 841300, 0.0444, -0.3127, -0.1035, -0.0338, -0.0981, 0.1108, 0.3735, 163, 172
9.9670, 0.3080, 0.3059, 0.0586, 0.3688, 0.0087, 1.0709, 841300, 0.0443, -0.3127, -0.1035, -0.0338, -0.0982, 0.1108, 0.3735, 163, 172
9.9980, -0.2978, 0.0973, -0.1228, 0.3740, 0.0068, 1.0709, 841340, 0.0443, -0.3127, -0.1035, -0.0338, -0.0980, 0.1109, 0.3315, 157, 177
10.0130, 0.3295, -0.5472, -0.0497, 0.3677, 0.0072, 1.0706, 841360, 0.0443, -0.3127, -0.1035, -0.0339, -0.0981, 0.1108, 0.3026, 156, 178
10.0290, 0.3295, -0.5472, -0.0497, 0.3677, 0.0072, 1.0706, 841360, 0.0444, -0.3127, -0.1035, -0.0338, -0.0981, 0.1108, 0.3026, 156, 178
10.0450, -0.3688, -1.0762, -0.1153, 0.3349, 0.0072, 1.0704, 841400, 0.0444, -0.3127, -0.1035, -0.0338, -0.0980, 0.1108, 0.2308, 158, 174
10.0760, 0.4134, -1.9782, 0.0949, 0.2772, 0.0073, 1.0692, 841440, 0.0443, -0.3127, -0.1035, -0.0338, -0.0983, 0.1107, 0.1446, 157, 172
10.0920, 0.4134, -1.9782, 0.0949, 0.2772, 0.0073, 1.0692, 841440, 0.0443, -0.3127, -0.1035, -0.0338, -0.0980, 0.1109, 0.1446, 157, 172
10.1070, -0.2817, -1.9126, 0.1285, 0.2409, 0.0054, 1.0695, 841460, 0.0443, -0.3128, -0.1036, -0.0338, -0.0982, 0.1108, 0.0976, 164, 163
10.1380, 0.4233, -2.4118, -0.0497, 0.1564, 0.0044, 1.0676, 841500, 0.0443, -0.3127, -0.1035, -0.0338, -0.0981, 0.1108, -0.0000, 159, 165
10.1540, 0.4233, -2.4118, -0.0497, 0.1564, 0.0044, 1.0676, 841500, 0.0444, -0.3127, -0.1035, -0.0339, -0.0980, 0.1108, -0.0000, 159, 165
10.1700, -0.0296, -2.6373, 0.2118, 0.1089, 0.0066, 1.0667, 841520, 0.0443, -0.3127, -0.1035, -0.0339, -0.0982, 0.1107, -0.0493, 172, 150
10.1850, -0.0296, -2.6373, 0.2118, 0.1089, 0.0066, 1.0667, 841520, 0.0444, -0.3127, -0.1035, -0.0338, -0.0979, 0.1109, -0.0493, 172, 150
10.2170, 0.4075, -2.1134, -0.0839, 0.0089, 0.0058, 1.0660, 841560, 0.0443, -0.3128, -0.1035, -0.0339, -0.0981, 0.1108, -0.1446, 162, 160
10.2320, 0.1408, -2.5325, 0.1075, -0.0852, 0.0051, 1.0653, 841600, 0.0444, -0.3127, -0.1035, -0.0339, -0.0980, 0.1108, -0.2308, 170, 152
10.2480, 0.1408, -2.5325, 0.1075, -0.0852, 0.0051, 1.0653, 841600, 0.0444, -0.3127, -0.1034, -0.0338, -0.0979, 0.1107, -0.2308, 170, 152
10.2630, 0.1287, -2.7098, 0.1438, -0.1243, 0.0061, 1.0648, 841620, 0.0443, -0.3127, -0.1035, -0.0338, -0.0981, 0.1108, -0.2688, 174, 149
10.2950, -0.3543, -1.9898, -0.1153, -0.2152, 0.0061, 1.0626, 841660, 0.0444, -0.3127, -0.1035, -0.0338, -0.0980, 0.1109, -0.3315, 167, 158
10.3100, -0.3543, -1.9898, -0.1153, -0.2152, 0.0061, 1.0626, 841660, 0.0443, -0.3128, -0.1035, -0.0338, -0.0981, 0.1108, -0.3315, 167, 158
10.3260, -0.1459, -2.2548, 0.2932, -0.2571, 0.0065, 1.0627, 841680, 0.0444, -0.3127, -0.1035, -0.0339, -0.0980, 0.1109, -0.3553, 180, 147
10.3570, 0.0086, -1.1208, -0.2223, -0.3311, 0.0072, 1.0613, 841720, 0.0444, -0.3128, -0.1035, -0.0338, -0.0980, 0.1108, -0.3857, 172, 160
10.3730, 0.0086, -1.1208, -0.2223, -0.3311, 0.0072, 1.0613, 841720, 0.0443, -0.3127, -0.1035, -0.0338, -0.0982, 0.1108, -0.3857, 172, 160
10.3880, -0.3954, -0.9706, 0.0672, -0.3784, 0.0068, 1.0617, 841760, 0.0443, -0.3127, -0.1035, -0.0338, -0.0981, 0.1108, -0.3919, 183, 151
10.4040, -0.3954, -0.9706, 0.0672, -0.3784, 0.0068, 1.0617, 841760, 0.0443, -0.3127, -0.1035, -0.0338, -0.0982, 0.1106, -0.3919, 183, 151
10.4350, 0.0855, -0.5953, 0.0871, -0.3932, 0.0070, 1.0622, 841780, 0.0444, -0.3127, -0.1035, -0.0339, -0.0980, 0.1109, -0.3857, 184, 151
10.4510, -0.0865, -0.0849, -0.0056, -0.4124, 0.0077, 1.0624, 841820, 0.0443, -0.3127, -0.1034, -0.0338, -0.0982, 0.1107, -0.3553, 185, 152
10.4660, -0.0865, -0.0849, -0.0056, -0.4124, 0.0077, 1.0624, 841820, 0.0443, -0.3128, -0.1035, -0.0339, -0.0981, 0.1108, -0.3553, 185, 152
10.4980, 0.0712, 0.1804, 0.2045, -0.4115, 0.0072, 1.0626, 841840, 0.0443, -0.3127, -0.1034, -0.0338, -0.0982, 0.1108, -0.3315, 186, 150
10.5130, 0.4886, 0.6112, -0.0879, -0.3892, 0.0056, 1.0643, 841880, 0.0444, -0.3127, -0.1035, -0.0339, -0.0980, 0.1108, -0.2688, 184, 151
10.5290, 0.4886, 0.6112, -0.0879, -0.3892, 0.0056, 1.0643, 841880, 0.0444, -0.3127, -0.1035, -0.0338, -0.0981, 0.1108, -0.2688, 184, 151
10.5450, -0.3610, 1.6087, 0.1016, -0.3426, 0.0066, 1.0655, 841920, 0.0443, -0.3127, -0.1034, -0.0338, -0.0981, 0.1108, -0.1892, 176, 157
10.5760, -0.1492, 1.1224, 0.3580, -0.3122, 0.0059, 1.0671, 841940, 0.0443, -0.3128, -0.1035, -0.0338, -0.0981, 0.1108, -0.1446, 184, 145
10.5910, -0.1492, 1.1224, 0.3580, -0.3122, 0.0059, 1.0671, 841940, 0.0443, -0.3127, -0.1035, -0.0339, -0.0982, 0.1108, -0.1446, 184, 145
10.6070, -0.3180, 2.4755, -0.1059, -0.2731, 0.0035, 1.0688, 841960, 0.0443, -0.3127, -0.1035, -0.0338, -0.0980, 0.1109, -0.0976, 168, 161
10.6380, 0.1191, 2.8940, 0.0070, -0.1810, 0.0024, 1.0701, 842000, 0.0443, -0.3127, -0.1035, -0.0339, -0.0981, 0.1108, -0.0000, 160, 165
10.6540, 0.1191, 2.8940, 0.0070, -0.1810, 0.0024, 1.0701, 842000, 0.0443, -0.3127, -0.1035, -0.0338, -0.0982, 0.1108, -0.0000, 160, 165
10.6700, -0.3037, 2.1795, 0.1973, -0.1311, 0.0016, 1.0713, 842020, 0.0444, -0.3127, -0.1035, -0.0339, -0.0980, 0.1108, 0.0493, 168, 155
10.6850, -0.3037, 2.1795, 0.1973, -0.1311, 0.0016, 1.0713, 842020, 0.0443, -0.3127, -0.1035, -0.0338, -0.0981, 0.1107, 0.0493, 168, 155
10.7160, 0.0497, 2.7029, -0.2650, -0.0291, 0.0012, 1.0725, 842060, 0.0444, -0.3127, -0.1035, -0.0339, -0.0980, 0.1109, 0.1446, 159, 163
10.7320, -0.1884, 2.3760, 0.0973, 0.0159, 0.0003, 1.0730, 842080, 0.0443, -0.3127, -0.1035, -0.0339, -0.0981, 0.1108, 0.1892, 161, 161
10.7480, -0.1884, 2.3760, 0.0973, 0.0159, 0.0003, 1.0730, 842080, 0.0443, -0.3127, -0.1035, -0.0338, -0.0981, 0.1108, 0.1892, 161, 161
10.7630, -0.0253, 2.2666, -0.1895, 0.1014, 0.0005, 1.0746, 842120, 0.0443, -0.3127, -0.1035, -0.0338, -0.0979, 0.1108, 0.2688, 161, 161
10.7950, 0.2596, 1.8156, 0.3298, 0.1892, 0.0000, 1.0751, 842160, 0.0443, -0.3127, -0.1035, -0.0338, -0.0982, 0.1107, 0.3315, 167, 158
10.8100, 0.2596, 1.8156, 0.3298, 0.1892, 0.0000, 1.0751, 842160, 0.0444, -0.3127, -0.1035, -0.0338, -0.0980, 0.1109, 0.3315, 167, 158
10.8260, -0.2919, 1.8613, -0.0667, 0.2334, 0.0003, 1.0755, 842180, 0.0443, -0.3127, -0.1035, -0.0337, -0.0981, 0.1108, 0.3553, 162, 165
10.8570, 0.3680, 1.1248, 0.0207, 0.3018, 0.0000, 1.0748, 842220, 0.0444, -0.3127, -0.1035, -0.0339, -0.0981, 0.1108, 0.3857, 163, 167
10.8730, 0.3680, 1.1248, 0.0207, 0.3018, 0.0000, 1.0748, 842220, 0.0443, -0.3127, -0.1035, -0.0338, -0.0980, 0.1109, 0.3857, 163, 167
10.8880, 0.0922, 0.5187, 0.1363, 0.3187, 0.0000, 1.0748, 842240, 0.0443, -0.3128, -0.1035, -0.0339, -0.0981, 0.1108, 0.3919, 177, 154
10.9040, 0.0922, 0.5187, 0.1363, 0.3187, 0.0000, 1.0748, 842240, 0.0444, -0.3127, -0.1035, -0.0338, -0.0980, 0.1109, 0.3919, 177, 154
10.9350, -0.1978, 0.5389, -0.1416, 0.3461, -0.0016, 1.0741, 842280, 0.0443, -0.3127, -0.1035, -0.0338, -0.0981, 0.1108, 0.3857, 167, 166
10.9510, -0.3900, -0.0086, -0.0121, 0.3641, -0.0003, 1.0746, 842320, 0.0443, -0.3127, -0.1036, -0.0340, -0.0980, 0.1109, 0.3553, 168, 167
10.9660, -0.3900, -0.0086, -0.0121, 0.3641, -0.0003, 1.0746, 842320, 0.0444, -0.3127, -0.1034, -0.0338, -0.0980, 0.1108, 0.3553, 168, 167
10.9980, -0.1935, 0.4088, -0.1650, 0.3686, -0.0009, 1.0741, 842340, 0.0443, -0.3127, -0.1035, -0.0339, -0.0981, 0.1108, 0.3315, 149, 184
11.0130, -0.2282, -0.9593, 0.1403, 0.3536, 0.0003, 1.0734, 842380, 0.0444, -0.3127, -0.1035, -0.0339, -0.0980, 0.1108, 0.2688, 164, 170
11.0290, -0.2282, -0.9593, 0.1403, 0.3536, 0.0003, 1.0734, 842380, 0.0443, -0.3127, -0.1035, -0.0338, -0.0981, 0.1107, 0.2688, 164, 170
11.0440, -0.7244, -0.5018, -0.2720, 0.3351, -0.0009, 1.0725, 842400, 0.0443, -0.3127, -0.1035, -0.0338, -0.0982, 0.1107, 0.2308, 154, 178
11.0760, 0.6203, -1.9973, 0.2763, 0.2772, -0.0014, 1.0715, 842440, 0.0444, -0.3127, -0.1034, -0.0339, -0.0980, 0.1107, 0.1446, 157, 172
11.0910, 0.6203, -1.9973, 0.2763, 0.2772, -0.0014, 1.0715, 842440, 0.0444, -0.3127, -0.1035, -0.0338, -0.0980, 0.1107, 0.1446, 157, 172
11.1070, -0.4276, -1.8911, -0.3056, 0.2431, -0.0012, 1.0715, 842460, 0.0443, -0.3127, -0.1035, -0.0339, -0.0980, 0.1107, 0.0976, 170, 157
11.1380, 0.0151, -2.4306, 0.1368, 0.1599, -0.0023, 1.0695, 842500, 0.0444, -0.3127, -0.1035, -0.0339, -0.0979, 0.1109, 0.0000, 169, 155
11.1540, 0.0151, -2.4306, 0.1368, 0.1599, -0.0023, 1.0695, 842500, 0.0444, -0.3127, -0.1035, -0.0339, -0.0979, 0.1109, 0.0000, 169, 155
11.1690, -0.4403, -1.4240, -0.2881, 0.0539, -0.0012, 1.0688, 842540, 0.0443, -0.3127, -0.1034, -0.0339, -0.0981, 0.1107, -0.0976, 164, 158
11.1850, -0.4403, -1.4240, -0.2881, 0.0539, -0.0012, 1.0688, 842540, 0.0444, -0.3127, -0.1035, -0.0339, -0.0980, 0.1108, -0.0976, 164, 158
11.2160, 0.2134, -1.9718, -0.0505, 0.0129, -0.0002, 1.0683, 842560, 0.0443, -0.3127, -0.1035, -0.0338, -0.0981, 0.1108, -0.1446, 153, 168
11.2320, -0.3295, -2.2019, 0.1709, -0.0613, 0.0002, 1.0690, 842600, 0.0444, -0.3127, -0.1034, -0.0338, -0.0980, 0.1108, -0.2308, 163, 159
11.2480, -0.3295, -2.2019, 0.1709, -0.0613, 0.0002, 1.0690, 842600, 0.0443, -0.3127, -0.1035, -0.0339, -0.0981, 0.1107, -0.2308, 163, 159
11.2790, -0.5085, -2.1648, -0.1341, -0.1091, 0.0003, 1.0688, 842620, 0.0443, -0.3127, -0.1035, -0.0338, -0.0981, 0.1108, -0.2688, 162, 161
11.2940, -0.0847, -2.6128, -0.2008, -0.1623, 0.0007, 1.0685, 842640, 0.0444, -0.3127, -0.1035, -0.0338, -0.0979, 0.1109, -0.3026, 173, 150
11.3100, -0.0847, -2.6128, -0.2008, -0.1623, 0.0007, 1.0685, 842640, 0.0443, -0.3127, -0.1035, -0.0339, -0.0982, 0.1107, -0.3026, 173, 150
11.3260, -0.3927, -1.7476, -0.0366, -0.2543, 0.0019, 1.0680, 842680, 0.0443, -0.3127, -0.1035, -0.0339, -0.0981, 0.1109, -0.3553, 170, 158
11.3570, -0.3594, -1.4936, 0.2602, -0.2847, 0.0009, 1.0680, 842700, 0.0444, -0.3127, -0.1035, -0.0338, -0.0982, 0.1107, -0.3735, 168, 162
11.3730, -0.3594, -1.4936, 0.2602, -0.2847, 0.0009, 1.0680, 842700, 0.0443, -0.3127, -0.1035, -0.0338, -0.0983, 0.1108, -0.3735, 168, 162
11.3880, -0.1938, -0.7150, -0.3661, -0.3302, 0.0007, 1.0680, 842740, 0.0443, -0.3127, -0.1035, -0.0339, -0.0980, 0.1109, -0.3919, 166, 166
11.4040, -0.1938, -0.7150, -0.3661, -0.3302, 0.0007, 1.0680, 842740, 0.0443, -0.3127, -0.1034, -0.0338, -0.0981, 0.1106, -0.3919, 166, 166
11.4350, 0.1347, -1.1254, 0.1231, -0.3663, 0.0024, 1.0688, 842780, 0.0443, -0.3127, -0.1035, -0.0338, -0.0981, 0.1109, -0.3857, 181, 152
11.4510, -0.2545, -0.9101, 0.0769, -0.3831, 0.0002, 1.0692, 842800, 0.0444, -0.3127, -0.1034, -0.0338, -0.0980, 0.1107, -0.3735, 186, 148
11.4660, -0.2545, -0.9101, 0.0769, -0.3831, 0.0002, 1.0692, 842800, 0.0444, -0.3128, -0.1035, -0.0337, -0.0981, 0.1107, -0.3735, 186, 148
11.4970, 0.0374, 0.3516, -0.2828, -0.3943, 0.0012, 1.0699, 842840, 0.0443, -0.3127, -0.1035, -0.0338, -0.0980, 0.1107, -0.3315, 180, 156
11.5130, -0.0659, 0.8090, -0.0183, -0.3875, 0.0000, 1.0697, 842860, 0.0443, -0.3127, -0.1034, -0.0337, -0.0981, 0.1107, -0.3026, 176, 160
11.5290, -0.0659, 0.8090, -0.0183, -0.3875, 0.0000, 1.0697, 842860, 0.0444, -0.3127, -0.1035, -0.0338, -0.0980, 0.1108, -0.3026, 176, 160
11.5440, -0.6013, 0.8093, 0.1008, -0.3534, -0.0031, 1.0720, 842900, 0.0444, -0.3127, -0.1034, -0.0338, -0.0979, 0.1107, -0.2308, 183, 149
11.5760, 0.0210, 1.9696, -0.2685, -0.2964, -0.0030, 1.0732, 842940, 0.0443, -0.3128, -0.1035, -0.0338, -0.0981, 0.1109, -0.1446, 169, 161
11.5910, 0.0210, 1.9696, -0.2685, -0.2964, -0.0030, 1.0732, 842940, 0.0443, -0.3127, -0.1035, -0.0338, -0.0980, 0.1108, -0.1446, 169, 161
11.6070, -0.0422, 2.2930, 0.2516, -0.2581, -0.0037, 1.0741, 842960, 0.0443, -0.3127, -0.1035, -0.0338, -0.0981, 0.1108, -0.0976, 162, 166
11.6380, -0.3701, 2.7537, -0.0051, -0.1724, -0.0066, 1.0765, 843000, 0.0443, -0.3127, -0.1035, -0.0338, -0.0981, 0.1108, 0.0000, 161, 163
11.6540, -0.3701, 2.7537, -0.0051, -0.1724, -0.0066, 1.0765, 843000, 0.0444, -0.3127, -0.1034, -0.0338, -0.0980, 0.1108, 0.0000, 161, 163
11.6690, 0.2201, 2.2787, -0.1048, -0.1274, -0.0070, 1.0772, 843020, 0.0443, -0.3127, -0.1035, -0.0339, -0.0982, 0.1109, 0.0493, 166, 157
11.6850, 0.2201, 2.2787, -0.1048, -0.1274, -0.0070, 1.0772, 843020, 0.0443, -0.3127, -0.1035, -0.0338, -0.0982, 0.1107, 0.0493, 166, 157
11.7160, -0.3741, 2.1766, 0.2096, -0.0330, -0.0058, 1.0781, 843060, 0.0443, -0.3127, -0.1035, -0.0338, -0.0982, 0.1108, 0.1446, 174, 146
11.7320, 0.0422, 2.7864, -0.1782, 0.0716, -0.0061, 1.0781, 843100, 0.0443, -0.3127, -0.1035, -0.0339, -0.0982, 0.1108, 0.2308, 149, 173
11.7470, 0.0422, 2.7864, -0.1782, 0.0716, -0.0061, 1.0781, 843100, 0.0443, -0.3127, -0.1034, -0.0338, -0.0981, 0.1108, 0.2308, 149, 173
11.7790, 0.1185, 2.1301, 0.1244, 0.1216, -0.0065, 1.0788, 843120, 0.0443, -0.3128, -0.1035, -0.0338, -0.0982, 0.1107, 0.2688, 161, 162
11.7940, 0.1430, 1.5498, -0.1105, 0.1868, -0.0073, 1.0793, 843160, 0.0443, -0.3127, -0.1035, -0.0339, -0.0981, 0.1107, 0.3315, 176, 148
11.8100, 0.1430, 1.5498, -0.1105, 0.1868, -0.0073, 1.0793, 843160, 0.0443, -0.3127, -0.1035, -0.0338, -0.0981, 0.1108, 0.3315, 176, 148
11.8260, -0.0067, 1.6444, -0.2306, 0.2135, -0.0073, 1.0784, 843180, 0.0443, -0.3128, -0.1035, -0.0338, -0.0982, 0.1108, 0.3553, 172, 153
11.8570, -0.0782, 1.8917, 0.3295, 0.2862, -0.0059, 1.0790, 843220, 0.0444, -0.3127, -0.1034, -0.0338, -0.0980, 0.1109, 0.3857, 157, 172
11.8720, -0.0782, 1.8917, 0.3295, 0.2862, -0.0059, 1.0790, 843220, 0.0443, -0.3128, -0.1035, -0.0339, -0.0980, 0.1108, 0.3857, 157, 172
11.8880, -0.2239, 1.4933, -0.3293, 0.3533, -0.0065, 1.0777, 843260, 0.0443, -0.3127, -0.1034, -0.0338, -0.0982, 0.1106, 0.3919, 151, 181
11.9040, -0.2239, 1.4933, -0.3293, 0.3533, -0.0065, 1.0777, 843260, 0.0444, -0.3127, -0.1035, -0.0339, -0.0978, 0.1109, 0.3919, 151, 181
11.9350, 0.1355, 0.6268, -0.0626, 0.3704, -0.0063, 1.0774, 843280, 0.0444, -0.3128, -0.1035, -0.0338, -0.0982, 0.1106, 0.3857, 152, 182
11.9510, 0.0288, -0.0081, -0.0527, 0.3805, -0.0051, 1.0781, 843320, 0.0444, -0.3127, -0.1035, -0.0338, -0.0979, 0.1108, 0.3553, 164, 171
11.9660, 0.0288, -0.0081, -0.0527, 0.3805, -0.0051, 1.0781, 843320, 0.0443, -0.3127, -0.1035, -0.0339, -0.0980, 0.1108, 0.3553, 164, 171
11.9970, -0.2174, -0.1037, -0.2419, 0.3798, -0.0049, 1.0772, 843340, 0.0444, -0.3127, -0.1035, -0.0338, -0.0981, 0.1107, 0.3315, 157, 178
12.0130, 0.1954, -0.8281, 0.1873, 0.3656, -0.0038, 1.0772, 843380, 0.0443, -0.3127, -0.1035, -0.0338, -0.0980, 0.1109, 0.2688, 157, 177
12.0290, 0.1954, -0.8281, 0.1873, 0.3656, -0.0038, 1.0772, 843380, 0.0444, -0.3128, -0.1035, -0.0338, -0.0981, 0.1108, 0.2688, 157, 177
12.0440, -0.3274, -1.1950, -0.1317, 0.3238, -0.0040, 1.0755, 843420, 0.0444, -0.3127, -0.1035, -0.0339, -0.0981, 0.1108, 0.1892, 151, 179
12.0750, -0.3274, -1.1950, -0.1317, 0.3238, -0.0040, 1.0755, 843420, 0.0444, -0.3127, -0.1035, -0.0338, -0.0980, 0.1108, 0.1892, 151, 179
12.0910, -0.3274, -1.1950, -0.1317, 0.3238, -0.0040, 1.0755, 843420, 0.0443, -0.3127, -0.1035, -0.0339, -0.0982, 0.1107, 0.1892, 151, 179
12.1070, 0.0078, -1.5001, -0.1494, 0.2569, -0.0033, 1.0753, 843460, 0.0443, -0.3128, -0.1035, -0.0339, -0.0980, 0.1109, 0.0976, 162, 166
12.1380, -0.3072, -2.0997, 0.1000, 0.1716, -0.0026, 1.0732, 843500, 0.0443, -0.3127, -0.1035, -0.0338, -0.0981, 0.1107, 0.0000, 155, 169
12.1540, -0.3072, -2.0997, 0.1000, 0.1716, -0.0026, 1.0732, 843500, 0.0443, -0.3127, -0.1035, -0.0339, -0.0981, 0.1108, 0.0000, 155, 169
12.1690, 0.0589, -3.1375, 0.0317, 0.1223, -0.0017, 1.0729, 843520, 0.0443, -0.3127, -0.1035, -0.0339, -0.0981, 0.1107, -0.0493, 171, 152
12.1850, 0.0589, -3.1375, 0.0317, 0.1223, -0.0017, 1.0729, 843520, 0.0443, -0.3127, -0.1035, -0.0339, -0.0981, 0.1109, -0.0493, 171, 152
12.2160, -0.1976, -2.8768, 0.0707, 0.0185, -0.0024, 1.0722, 843560, 0.0444, -0.3127, -0.1035, -0.0338, -0.0981, 0.1107, -0.1446, 176, 144
12.2320, 0.0194, -3.6178, 0.1325, -0.0330, -0.0021, 1.0725, 843580, 0.0444, -0.3127, -0.1034, -0.0338, -0.0980, 0.1108, -0.1892, 172, 148
12.2470, 0.0194, -3.6178, 0.1325, -0.0330, -0.0021, 1.0725, 843580, 0.0443, -0.3127, -0.1035, -0.0339, -0.0982, 0.1108, -0.1892, 172, 148
12.2790, 0.1078, -2.3056, -0.1271, -0.1323, 0.0003, 1.0718, 843620, 0.0443, -0.3127, -0.1035, -0.0338, -0.0981, 0.1108, -0.2688, 164, 159
12.2940, -0.0462, -2.0626, 0.2153, -0.2143, 0.0010, 1.0720, 843660, 0.0443, -0.3127, -0.1035, -0.0338, -0.0981, 0.1108, -0.3315, 169, 157
12.3100, -0.0462, -2.0626, 0.2153, -0.2143, 0.0010, 1.0720, 843660, 0.0444, -0.3127, -0.1035, -0.0339, -0.0982, 0.1107, -0.3315, 169, 157
12.3250, -0.3618, -1.5412, -0.1484, -0.2513, 0.0005, 1.0718, 843680, 0.0443, -0.3127, -0.1035, -0.0339, -0.0980, 0.1108, -0.3553, 177, 149
12.3570, 0.1726, -1.7097, 0.1304, -0.3192, 0.0000, 1.0716, 843720, 0.0443, -0.3128, -0.1035, -0.0338, -0.0983, 0.1107, -0.3857, 180, 151
12.3720, 0.1726, -1.7097, 0.1304, -0.3192, 0.0000, 1.0716, 843720, 0.0443, -0.3127, -0.1034, -0.0338, -0.0981, 0.1107, -0.3857, 180, 151
12.3880, -0.4529, -1.4232, 0.0986, -0.3482, 0.0005, 1.0718, 843740, 0.0444, -0.3127, -0.1035, -0.0339, -0.0980, 0.1108, -0.3919, 182, 150
12.4190, 0.3623, -0.7601, -0.2099, -0.3924, 0.0005, 1.0720, 843780, 0.0444, -0.3127, -0.1035, -0.0339, -0.0981, 0.1107, -0.3857, 181, 155
12.4350, 0.3623, -0.7601, -0.2099, -0.3924, 0.0005, 1.0720, 843780, 0.0443, -0.3127, -0.1035, -0.0338, -0.0980, 0.1108, -0.3857, 181, 155
12.4500, -0.0645, -0.5416, 0.3371, -0.4117, -0.0009, 1.0727, 843820, 0.0443, -0.3128, -0.1035, -0.0338, -0.0982, 0.1107, -0.3553, 190, 146
12.4660, -0.0645, -0.5416, 0.3371, -0.4117, -0.0009, 1.0727, 843820, 0.0443, -0.3127, -0.1035, -0.0338, -0.0981, 0.1108, -0.3553, 190, 146
12.4970, -0.4645, -0.0642, 0.0766, -0.4147, -0.0014, 1.0730, 843840, 0.0443, -0.3127, -0.1035, -0.0338, -0.0980, 0.1108, -0.3315, 191, 144
12.5130, 0.3849, 1.1270, -0.1986, -0.3917, -0.0026, 1.0739, 843880, 0.0444, -0.3127, -0.1035, -0.0339, -0.0981, 0.1106, -0.2688, 179, 157
12.5280, 0.3849, 1.1270, -0.1986, -0.3917, -0.0026, 1.0739, 843880, 0.0443, -0.3127, -0.1035, -0.0338, -0.0980, 0.1109, -0.2688, 179, 157
12.5440, -0.2228, 1.4474, 0.0191, -0.3702, -0.0033, 1.0737, 843900, 0.0443, -0.3127, -0.1035, -0.0338, -0.0980, 0.1108, -0.2308, 179, 155
12.5750, -0.2188, 1.8342, -0.0239, -0.3133, -0.0030, 1.0758, 843940, 0.0444, -0.3127, -0.1035, -0.0339, -0.0981, 0.1109, -0.1446, 185, 144
12.5910, -0.2188, 1.8342, -0.0239, -0.3133, -0.0030, 1.0758, 843940, 0.0444, -0.3127, -0.1035, -0.0338, -0.0979, 0.1108, -0.1446, 185, 144
12.6070, 0.2779, 2.3000, -0.0693, -0.2356, -0.0030, 1.0763, 843980, 0.0443, -0.3127, -0.1035, -0.0339, -0.0981, 0.1108, -0.0493, 180, 145
12.6380, -0.0849, 2.1747, 0.1204, -0.1881, -0.0024, 1.0769, 844000, 0.0443, -0.3127, -0.1035, -0.0338, -0.0981, 0.1109, -0.0000, 172, 152
12.6530, -0.0849, 2.1747, 0.1204, -0.1881, -0.0024, 1.0769, 844000, 0.0444, -0.3128, -0.1035, -0.0338, -0.0981, 0.1106, -0.0000, 172, 152
12.6690, -0.1895, 3.1598, -0.1322, -0.0881, -0.0058, 1.0791, 844040, 0.0444, -0.3127, -0.1035, -0.0339, -0.0980, 0.1108, 0.0976, 174, 147
12.6850, -0.1895, 3.1598, -0.1322, -0.0881, -0.0058, 1.0791, 844040, 0.0443, -0.3127, -0.1035, -0.0338, -0.0982, 0.1108, 0.0976, 174, 147
12.7160, -0.1433, 2.6365, -0.2879, -0.0360, -0.0072, 1.0790, 844060, 0.0444, -0.3127, -0.1035, -0.0338, -0.0981, 0.1107, 0.1446, 160, 162
12.7320, -0.0180, 2.2545, 0.0363, 0.0637, -0.0059, 1.0793, 844100, 0.0443, -0.3127, -0.1035, -0.0339, -0.0981, 0.1108, 0.2308, 170, 152
12.7470, -0.0180, 2.2545, 0.0363, 0.0637, -0.0059, 1.0793, 844100, 0.0443, -0.3127, -0.1035, -0.0338, -0.0981, 0.1107, 0.2308, 170, 152
12.7780, -0.3586, 2.1736, -0.2201, 0.1061, -0.0068, 1.0790, 844120, 0.0444, -0.3127, -0.1035, -0.0339, -0.0981, 0.1107, 0.2688, 167, 156
12.7940, 0.3451, 1.9414, 0.1253, 0.1452, -0.0063, 1.0788, 844140, 0.0444, -0.3127, -0.1034, -0.0338, -0.0981, 0.1107, 0.3026, 165, 158
12.8100, 0.3451, 1.9414, 0.1253, 0.1452, -0.0063, 1.0788, 844140, 0.0443, -0.3127, -0.1035, -0.0338, -0.0981, 0.1108, 0.3026, 165, 158
12.8250, -0.8297, 2.3341, 0.0237, 0.2260, -0.0056, 1.0786, 844180, 0.0443, -0.3127, -0.1035, -0.0339, -0.0981, 0.1108, 0.3553, 154, 172
12.8570, 0.1790, 1.8094, -0.1253, 0.3054, -0.0059, 1.0779, 844220, 0.0443, -0.3127, -0.1034, -0.0338, -0.0981, 0.1107, 0.3857, 156, 174
12.8720, 0.1790, 1.8094, -0.1253, 0.3054, -0.0059, 1.0779, 844220, 0.0443, -0.3127, -0.1035, -0.0338, -0.0980, 0.1108, 0.3857, 156, 174
12.8880, -0.3131, 0.8964, 0.1709, 0.3297, -0.0054, 1.0779, 844240, 0.0443, -0.3127, -0.1034, -0.0338, -0.0982, 0.1108, 0.3919, 166, 166
12.9190, -0.3198, 0.7402, 0.0242, 0.3442, -0.0063, 1.0776, 844260, 0.0443, -0.3127, -0.1035, -0.0338, -0.0980, 0.1109, 0.3919, 167, 166
12.9350, -0.3198, 0.7402, 0.0242, 0.3442, -0.0063, 1.0776, 844260, 0.0443, -0.3127, -0.1035, -0.0339, -0.0982, 0.1108, 0.3919, 167, 166
12.9500, -0.1941, 0.4206, 0.0984, 0.3772, -0.0045, 1.0765, 844320, 0.0443, -0.3127, -0.1035, -0.0338, -0.0980, 0.1108, 0.3553, 158, 177
12.9660, -0.1941, 0.4206, 0.0984, 0.3772, -0.0045, 1.0765, 844320, 0.0443, -0.3128, -0.1035, -0.0338, -0.0980, 0.1109, 0.3553, 158, 177
12.9970, 0.0755, 0.2556, -0.1172, 0.3819, -0.0045, 1.0758, 844340, 0.0444, -0.3127, -0.1035, -0.0339, -0.0980, 0.1108, 0.3315, 153, 181
13.0130, 0.0755, 0.2556, -0.1172, 0.3819, -0.0045, 1.0758, 844340, 0.0443, -0.3127, -0.1035, -0.0339, -0.0980, 0.1109, 0.3315, 153, 181
13.0280, 0.1976, -1.0832, 0.1532, 0.3646, -0.0035, 1.0755, 844380, 0.0443, -0.3128, -0.1035, -0.0339, -0.0981, 0.1108, 0.2688, 163, 171
13.0440, 0.1976, -1.0832, 0.1532, 0.3646, -0.0035, 1.0755, 844380, 0.0444, -0.3127, -0.1035, -0.0338, -0.0980, 0.1108, 0.2688, 163, 171
13.0750, -0.0371, -1.4667, -0.0629, 0.3145, -0.0049, 1.0743, 844420, 0.0444, -0.3127, -0.1035, -0.0339, -0.0981, 0.1106, 0.1892, 148, 181
13.0910, 0.3723, -1.6890, 0.1693, 0.2817, -0.0028, 1.0737, 844440, 0.0443, -0.3127, -0.1035, -0.0338, -0.0982, 0.1108, 0.1446, 159, 170
13.1060, 0.3723, -1.6890, 0.1693, 0.2817, -0.0028, 1.0737, 844440, 0.0444, -0.3127, -0.1035, -0.0338, -0.0978, 0.1108, 0.1446, 159, 170
13.1380, -0.3419, -1.4272, -0.3239, 0.2086, -0.0042, 1.0727, 844480, 0.0442, -0.3128, -0.1035, -0.0338, -0.0982, 0.1107, 0.0493, 145, 179
13.1530, 0.2398, -2.6048, -0.0339, 0.1658, -0.0028, 1.0718, 844500, 0.0444, -0.3127, -0.1035, -0.0338, -0.0981, 0.1107, 0.0000, 160, 165
13.1690, 0.2398, -2.6048, -0.0339, 0.1658, -0.0028, 1.0718, 844500, 0.0443, -0.3127, -0.1035, -0.0338, -0.0982, 0.1106, 0.0000, 160, 165
13.1850, -0.6416, -2.5843, -0.0422, 0.0606, -0.0009, 1.0715, 844540, 0.0444, -0.3127, -0.1035, -0.0339, -0.0981, 0.1108, -0.0976, 185, 134
13.2160, 0.2994, -2.0094, -0.0118, -0.0281, -0.0005, 1.0711, 844580, 0.0443, -0.3127, -0.1035, -0.0338, -0.0981, 0.1109, -0.1892, 150, 171
13.2310, 0.2994, -2.0094, -0.0118, -0.0281, -0.0005, 1.0711, 844580, 0.0443, -0.3127, -0.1035, -0.0338, -0.0983, 0.1107, -0.1892, 150, 171
13.2470, -0.1234, -2.0968, 0.1720, -0.0667, -0.0002, 1.0718, 844600, 0.0444, -0.3127, -0.1035, -0.0339, -0.0980, 0.1107, -0.2308, 156, 166
13.2780, -0.1906, -2.5894, -0.2005, -0.1620, -0.0021, 1.0708, 844640, 0.0444, -0.3127, -0.1035, -0.0339, -0.0981, 0.1108, -0.3026, 177, 146
13.2940, -0.1906, -2.5894, -0.2005, -0.1620, -0.0021, 1.0708, 844640, 0.0443, -0.3127, -0.1035, -0.0338, -0.0982, 0.1108, -0.3026, 177, 146
13.3100, 0.3182, -2.2919, -0.1279, -0.2122, -0.0012, 1.0697, 844660, 0.0443, -0.3127, -0.1035, -0.0338, -0.0981, 0.1109, -0.3315, 169, 156
13.3250, 0.3182, -2.2919, -0.1279, -0.2122, -0.0012, 1.0697, 844660, 0.0443, -0.3128, -0.1035, -0.0339, -0.0982, 0.1108, -0.3315, 169, 156
13.3560, -0.3534, -1.4643, 0.2572, -0.2883, 0.0007, 1.0697, 844700, 0.0444, -0.3127, -0.1035, -0.0340, -0.0980, 0.1109, -0.3735, 166, 163
13.3720, -0.3319, -1.0810, -0.1029, -0.3334, 0.0012, 1.0704, 844740, 0.0443, -0.3127, -0.1034, -0.0338, -0.0982, 0.1108, -0.3919, 175, 157
13.3880, -0.3319, -1.0810, -0.1029, -0.3334, 0.0012, 1.0704, 844740, 0.0444, -0.3128, -0.1035, -0.0339, -0.0980, 0.1108, -0.3919, 175, 157
13.4190, 0.3405, -0.8980, -0.1177, -0.3515, 0.0010, 1.0704, 844760, 0.0443, -0.3127, -0.1034, -0.0338, -0.0982, 0.1108, -0.3919, 175, 158
13.4340, -0.1304, -0.6357, 0.0191, -0.3831, 0.0024, 1.0702, 844800, 0.0443, -0.3127, -0.1035, -0.0338, -0.0981, 0.1108, -0.3735, 182, 153
13.4500, -0.1304, -0.6357, 0.0191, -0.3831, 0.0024, 1.0702, 844800, 0.0444, -0.3127, -0.1035, -0.0340, -0.0980, 0.1108, -0.3735, 182, 153
13.4660, 0.0038, -0.4486, 0.2467, -0.3936, 0.0017, 1.0713, 844820, 0.0443, -0.3127, -0.1035, -0.0338, -0.0981, 0.1108, -0.3553, 186, 149
13.4970, 0.2639, 0.4094, -0.2500, -0.3904, 0.0014, 1.0711, 844860, 0.0444, -0.3128, -0.1035, -0.0338, -0.0981, 0.1107, -0.3026, 184, 151
13.5130, 0.2639, 0.4094, -0.2500, -0.3904, 0.0014, 1.0711, 844860, 0.0443, -0.3127, -0.1035, -0.0338, -0.0981, 0.1108, -0.3026, 184, 151
13.5280, -0.3862, 1.0251, 0.1583, -0.3587, 0.0012, 1.0720, 844900, 0.0444, -0.3127, -0.1035, -0.0338, -0.0979, 0.1108, -0.2308, 176, 158
13.5590, -0.3862, 1.0251, 0.1583, -0.3587, 0.0012, 1.0720, 844900, 0.0443, -0.3127, -0.1035, -0.0340, -0.0981, 0.1108, -0.2308, 176, 158
13.5750, 0.0172, 1.0886, 0.2572, -0.3330, 0.0005, 1.0732, 844920, 0.0443, -0.3127, -0.1034, -0.0339, -0.0981, 0.1107, -0.1892, 180, 151
13.5910, -0.0274, 1.9796, -0.2454, -0.2662, -0.0009, 1.0748, 844960, 0.0443, -0.3127, -0.1035, -0.0338, -0.0980, 0.1109, -0.0976, 172, 156
13.6060, -0.0274, 1.9796, -0.2454, -0.2662, -0.0009, 1.0748, 844960, 0.0443, -0.3127, -0.1034, -0.0339, -0.0982, 0.1106, -0.0976, 172, 156
13.6380, 0.3137, 2.3903, 0.1376, -0.2262, -0.0010, 1.0763, 844980, 0.0443, -0.3127, -0.1035, -0.0338, -0.0980, 0.1108, -0.0493, 170, 156
13.6530, -0.1306, 2.3448, 0.1242, -0.1344, -0.0031, 1.0784, 845020, 0.0443, -0.3127, -0.1035, -0.0339, -0.0981, 0.1107, 0.0493, 169, 154
13.6690, -0.1306, 2.3448, 0.1242, -0.1344, -0.0031, 1.0784, 845020, 0.0443, -0.3127, -0.1035, -0.0338, -0.0981, 0.1108, 0.0493, 169, 154
13.6840, -0.2142, 2.7803, -0.1820, -0.0356, -0.0037, 1.0793, 845060, 0.0443, -0.3128, -0.1035, -0.0339, -0.0981, 0.1107, 0.1446, 165, 156
13.7160, -0.2142, 2.7803, -0.1820, -0.0356, -0.0037, 1.0793, 845060, 0.0443, -0.3127, -0.1035, -0.0338, -0.0981, 0.1108, 0.1446, 165, 156
13.7310, -0.2142, 2.7803, -0.1820, -0.0356, -0.0037, 1.0793, 845060, 0.0443, -0.3127, -0.1035, -0.0339, -0.0980, 0.1108, 0.1446, 165, 156
13.7470, -0.2922, 2.4575, 0.0984, 0.0565, -0.0052, 1.0812, 845100, 0.0443, -0.3127, -0.1035, -0.0338, -0.0982, 0.1107, 0.2308, 169, 152
13.7780, 0.3537, 2.4997, -0.0457, 0.1501, -0.0051, 1.0807, 845140, 0.0443, -0.3127, -0.1035, -0.0338, -0.0982, 0.1108, 0.3026, 162, 162
13.7940, 0.3537, 2.4997, -0.0457, 0.1501, -0.0051, 1.0807, 845140, 0.0443, -0.3127, -0.1035, -0.0339, -0.0980, 0.1108, 0.3026, 162, 162
13.8090, 0.0868, 2.0339, 0.0922, 0.1976, -0.0049, 1.0811, 845160, 0.0443, -0.3127, -0.1035, -0.0339, -0.0982, 0.1108, 0.3315, 161, 164
13.8250, 0.0868, 2.0339, 0.0922, 0.1976, -0.0049, 1.0811, 845160, 0.0443, -0.3127, -0.1035, -0.0339, -0.0980, 0.1109, 0.3315, 161, 164
13.8560, 0.3379, 0.9456, -0.0933, 0.2632, -0.0045, 1.0811, 845200, 0.0443, -0.3128, -0.1035, -0.0338, -0.0982, 0.1107, 0.3735, 176, 152
13.8720, 0.3739, 0.9104, 0.0489, 0.2829, -0.0045, 1.0812, 845220, 0.0443, -0.3127, -0.1035, -0.0338, -0.0981, 0.1109, 0.3857, 176, 152
13.8880, 0.3739, 0.9104, 0.0489, 0.2829, -0.0045, 1.0812, 845220, 0.0443, -0.3127, -0.1034, -0.0338, -0.0981, 0.1108, 0.3857, 176, 152
13.9190, -0.1142, 0.7305, 0.1043, 0.3194, -0.0040, 1.0814, 845260, 0.0443, -0.3128, -0.1035, -0.0338, -0.0981, 0.1108, 0.3919, 169, 162
13.9340, -0.1341, 0.9593, -0.0065, 0.3550, -0.0051, 1.0811, 845300, 0.0443, -0.3127, -0.1035, -0.0338, -0.0981, 0.1108, 0.3735, 151, 181
13.9500, -0.1341, 0.9593, -0.0065, 0.3550, -0.0051, 1.0811, 845300, 0.0443, -0.3127, -0.1035, -0.0339, -0.0979, 0.1108, 0.3735, 151, 181
13.9660, 0.0376, 0.3846, 0.2451, 0.3686, -0.0058, 1.0814, 845320, 0.0443, -0.3127, -0.1035, -0.0338, -0.0981, 0.1107, 0.3553, 156, 178
13.9970, 0.1341, -0.3599, -0.2285, 0.3637, -0.0072, 1.0804, 845360, 0.0444, -0.3127, -0.1035, -0.0339, -0.0981, 0.1108, 0.3026, 155, 178
14.0130, 0.1341, -0.3599, -0.2285, 0.3637, -0.0072, 1.0804, 845360, 0.0443, -0.3127, -0.1035, -0.0339, -0.0981, 0.1108, 0.3026, 155, 178
14.0280, -0.2118, -0.7647, -0.0202, 0.3496, -0.0072, 1.0798, 845380, 0.0444, -0.3127, -0.1035, -0.0339, -0.0981, 0.1108, 0.2688, 161, 173
14.0590, -0.2118, -0.7647, -0.0202, 0.3496, -0.0072, 1.0798, 845380, 0.0444, -0.3127, -0.1035, -0.0339, -0.0979, 0.1108, 0.2688, 161, 173
14.0750, -0.1234, -0.8840, -0.0957, 0.3094, -0.0063, 1.0791, 845420, 0.0443, -0.3127, -0.1035, -0.0338, -0.0981, 0.1108, 0.1892, 155, 175
14.0910, -0.2696, -1.9234, 0.0949, 0.2464, -0.0068, 1.0781, 845460, 0.0443, -0.3127, -0.1035, -0.0339, -0.0981, 0.1108, 0.0976, 159, 168
14.1060, -0.2696, -1.9234, 0.0949, 0.2464, -0.0068, 1.0781, 845460, 0.0443, -0.3127, -0.1035, -0.0338, -0.0982, 0.1108, 0.0976, 159, 168
14.1370, 0.0865, -2.9762, 0.1097, 0.2028, -0.0058, 1.0777, 845480, 0.0443, -0.3127, -0.1035, -0.0338, -0.0982, 0.1107, 0.0493, 171, 155
14.1530, -0.0559, -2.6451, -0.0062, 0.1121, -0.0031, 1.0769, 845520, 0.0444, -0.3127, -0.1035, -0.0339, -0.0979, 0.1108, -0.0493, 168, 155
14.1690, -0.0559, -2.6451, -0.0062, 0.1121, -0.0031, 1.0769, 845520, 0.0443, -0.3128, -0.1035, -0.0339, -0.0980, 0.1108, -0.0493, 168, 155
14.1840, -0.3290, -2.4526, 0.0728, 0.0646, -0.0023, 1.0765, 845540, 0.0444, -0.3127, -0.1034, -0.0338, -0.0979, 0.1108, -0.0976, 164, 158
14.2160, 0.3965, -2.6010, -0.1605, -0.0468, -0.0016, 1.0755, 845580, 0.0443, -0.3128, -0.1035, -0.0339, -0.0980, 0.1108, -0.1892, 162, 160
14.2310, 0.3965, -2.6010, -0.1605, -0.0468, -0.0016, 1.0755, 845580, 0.0443, -0.3127, -0.1035, -0.0340, -0.0982, 0.1108, -0.1892, 162, 160
14.2470, -0.4206, -2.1290, 0.1642, -0.1431, -0.0037, 1.0753, 845620, 0.0444, -0.3127, -0.1035, -0.0339, -0.0980, 0.1108, -0.2688, 172, 150
14.2780, -0.1156, -2.4438, 0.0253, -0.1857, -0.0021, 1.0756, 845640, 0.0443, -0.3127, -0.1035, -0.0338, -0.0981, 0.1108, -0.3026, 176, 147
14.2940, -0.1156, -2.4438, 0.0253, -0.1857, -0.0021, 1.0756, 845640, 0.0443, -0.3127, -0.1035, -0.0339, -0.0981, 0.1108, -0.3026, 176, 147
14.3090, 0.1476, -1.8629, -0.0159, -0.2644, -0.0024, 1.0744, 845680, 0.0444, -0.3127, -0.1035, -0.0339, -0.0979, 0.1109, -0.3553, 175, 153
14.3250, 0.1476, -1.8629, -0.0159, -0.2644, -0.0024, 1.0744, 845680, 0.0443, -0.3127, -0.1035, -0.0337, -0.0982, 0.1108, -0.3553, 175, 153
14.3560, -0.3204, -1.7530, 0.1481, -0.3011, -0.0016, 1.0746, 845700, 0.0443, -0.3127, -0.1035, -0.0338, -0.0980, 0.1109, -0.3735, 178, 151
14.3720, 0.2814, -1.2824, -0.1201, -0.3632, -0.0021, 1.0751, 845740, 0.0444, -0.3128, -0.1035, -0.0338, -0.0981, 0.1108, -0.3919, 188, 143
14.3870, 0.2814, -1.2824, -0.1201, -0.3632, -0.0021, 1.0751, 845740, 0.0443, -0.3127, -0.1035, -0.0339, -0.0981, 0.1108, -0.3919, 188, 143
14.4190, 0.1306, -0.6771, -0.2446, -0.3852, -0.0019, 1.0748, 845760, 0.0443, -0.3127, -0.1035, -0.0339, -0.0981, 0.1108, -0.3919, 183, 152
14.4340, -0.0863, -0.4962, 0.1046, -0.3993, -0.0030, 1.0749, 845780, 0.0443, -0.3127, -0.1035, -0.0338, -0.0981, 0.1108, -0.3857, 180, 157
14.4500, -0.0863, -0.4962, 0.1046, -0.3993, -0.0030, 1.0749, 845780, 0.0444, -0.3127, -0.1035, -0.0340, -0.0980, 0.1108, -0.3857, 180, 157
14.4660, -0.4790, -0.2664, -0.0226, -0.4133, -0.0042, 1.0765, 845820, 0.0444, -0.3127, -0.1034, -0.0339, -0.0981, 0.1108, -0.3553, 188, 148
14.4970, 0.4392, -0.0919, -0.1416, -0.4152, -0.0051, 1.0772, 845840, 0.0444, -0.3128, -0.1035, -0.0338, -0.0980, 0.1107, -0.3315, 192, 143
14.5120, 0.4392, -0.0919, -0.1416, -0.4152, -0.0051, 1.0772, 845840, 0.0443, -0.3127, -0.1035, -0.0339, -0.0980, 0.1107, -0.3315, 192, 143
14.5280, -0.2873, 1.0937, 0.1169, -0.3955, -0.0063, 1.0777, 845880, 0.0444, -0.3127, -0.1035, -0.0338, -0.0981, 0.1108, -0.2688, 179, 158
14.5590, -0.1212, 1.2678, -0.0255, -0.3457, -0.0077, 1.0793, 845920, 0.0444, -0.3127, -0.1035, -0.0338, -0.0981, 0.1108, -0.1892, 186, 145
14.5750, -0.1212, 1.2678, -0.0255, -0.3457, -0.0077, 1.0793, 845920, 0.0443, -0.3127, -0.1035, -0.0338, -0.0980, 0.1107, -0.1892, 186, 145
14.5900, 0.5061, 1.8801, -0.0486, -0.3128, -0.0073, 1.0798, 845940, 0.0443, -0.3128, -0.1035, -0.0338, -0.0981, 0.1108, -0.1446, 169, 162
14.6060, 0.5061, 1.8801, -0.0486, -0.3128, -0.0073, 1.0798, 845940, 0.0444, -0.3127, -0.1034, -0.0338, -0.0980, 0.1106, -0.1446, 169, 162
14.6370, -0.3397, 1.9952, 0.1704, -0.2307, -0.0077, 1.0805, 845980, 0.0443, -0.3127, -0.1035, -0.0338, -0.0980, 0.1109, -0.0493, 171, 156
14.6530, 0.0427, 1.5224, 0.2148, -0.1880, -0.0084, 1.0819, 846000, 0.0443, -0.3127, -0.1035, -0.0338, -0.0982, 0.1108, -0.0000, 183, 140
14.6690, 0.0427, 1.5224, 0.2148, -0.1880, -0.0084, 1.0819, 846000, 0.0443, -0.3127, -0.1035, -0.0338, -0.0980, 0.1109, -0.0000, 183, 140
14.6840, 0.0624, 2.8225, -0.1812, -0.0906, -0.0089, 1.0818, 846040, 0.0443, -0.3128, -0.1035, -0.0338, -0.0982, 0.1108, 0.0976, 162, 160
14.7150, -0.4123, 2.1602, 0.1180, 0.0127, -0.0091, 1.0826, 846080, 0.0443, -0.3127, -0.1035, -0.0339, -0.0982, 0.1108, 0.1892, 170, 151
14.7310, -0.4123, 2.1602, 0.1180, 0.0127, -0.0091, 1.0826, 846080, 0.0443, -0.3127, -0.1035, -0.0338, -0.0981, 0.1108, 0.1892, 170, 151
14.7470, -0.0234, 2.4107, -0.0212, 0.0625, -0.0096, 1.0826, 846100, 0.0444, -0.3128, -0.1035, -0.0338, -0.0982, 0.1107, 0.2308, 153, 168
14.7780, -0.0075, 2.3298, 0.0376, 0.1489, -0.0080, 1.0821, 846140, 0.0443, -0.3127, -0.1034, -0.0338, -0.0980, 0.1108, 0.3026, 159, 164
14.7940, -0.0075, 2.3298, 0.0376, 0.1489, -0.0080, 1.0821, 846140, 0.0443, -0.3127, -0.1035, -0.0339, -0.0981, 0.1108, 0.3026, 159, 164
14.8090, 0.1304, 2.1062, -0.0486, 0.2286, -0.0087, 1.0823, 846180, 0.0443, -0.3127, -0.1034, -0.0338, -0.0981, 0.1108, 0.3553, 164, 162
14.8250, 0.1304, 2.1062, -0.0486, 0.2286, -0.0087, 1.0823, 846180, 0.0443, -0.3127, -0.1035, -0.0339, -0.0980, 0.1109, 0.3553, 164, 162
14.8560, 0.1454, 2.1672, -0.2811, 0.2676, -0.0086, 1.0816, 846200, 0.0443, -0.3127, -0.1035, -0.0339, -0.0983, 0.1106, 0.3735, 152, 176
14.8720, 0.0925, 1.1394, 0.0314, 0.3342, -0.0065, 1.0821, 846240, 0.0444, -0.3127, -0.1035, -0.0338, -0.0980, 0.1109, 0.3919, 163, 170
14.8870, 0.0925, 1.1394, 0.0314, 0.3342, -0.0065, 1.0821, 846240, 0.0443, -0.3127, -0.1035, -0.0338, -0.0980, 0.1107, 0.3919, 163, 170
14.9190, -0.0382, 0.9281, -0.2607, 0.3540, -0.0066, 1.0814, 846260, 0.0443, -0.3127, -0.1034, -0.0338, -0.0981, 0.1107, 0.3919, 160, 173
14.9340, 0.1908, -0.1390, 0.2852, 0.3674, -0.0072, 1.0811, 846300, 0.0444, -0.3127, -0.1035, -0.0339, -0.0980, 0.1108, 0.3735, 171, 164
14.9500, 0.1908, -0.1390, 0.2852, 0.3674, -0.0072, 1.0811, 846300, 0.0443, -0.3127, -0.1035, -0.0339, -0.0982, 0.1107, 0.3735, 171, 164
14.9650, 0.1524, -0.0505, -0.0167, 0.3700, -0.0066, 1.0811, 846320, 0.0443, -0.3127, -0.1035, -0.0338, -0.0981, 0.1109, 0.3553, 168, 167
14.9970, -0.0304, -0.5905, 0.1309, 0.3691, -0.0072, 1.0804, 846360, 0.0444, -0.3127, -0.1035, -0.0339, -0.0979, 0.1107, 0.3026, 160, 174
15.0120, -0.0304, -0.5905, 0.1309, 0.3691, -0.0072, 1.0804, 846360, 0.0444, -0.3127, -0.1035, -0.0339, -0.0981, 0.1108, 0.3026, 160, 174
15.0280, 0.0223, -0.7768, -0.1997, 0.3416, -0.0065, 1.0804, 846400, 0.0443, -0.3127, -0.1035, -0.0338, -0.0981, 0.1108, 0.2308, 151, 181
15.0590, 0.0145, -1.2114, -0.0755, 0.3182, -0.0061, 1.0793, 846420, 0.0443, -0.3127, -0.1035, -0.0338, -0.0982, 0.1107, 0.1892, 151, 179
15.0750, 0.0145, -1.2114, -0.0755, 0.3182, -0.0061, 1.0793, 846420, 0.0443, -0.3127, -0.1035, -0.0339, -0.0981, 0.1109, 0.1892, 151, 179
15.0900, 0.2427, -2.2129, 0.1446, 0.2876, -0.0063, 1.0793, 846440, 0.0444, -0.3127, -0.1035, -0.0338, -0.0980, 0.1108, 0.1446, 159, 171
15.1060, 0.2427, -2.2129, 0.1446, 0.2876, -0.0063, 1.0793, 846440, 0.0443, -0.3127, -0.1035, -0.0339, -0.0981, 0.1109, 0.1446, 159, 171
15.1370, 0.6913, -2.2303, -0.2263, 0.2128, -0.0028, 1.0777, 846480, 0.0443, -0.3127, -0.1035, -0.0338, -0.0982, 0.1107, 0.0493, 146, 179
15.1530, -0.2846, -2.2247, 0.1333, 0.1689, -0.0023, 1.0774, 846500, 0.0443, -0.3127, -0.1035, -0.0339, -0.0980, 0.1109, 0.0000, 169, 155
15.1680, -0.2846, -2.2247, 0.1333, 0.1689, -0.0023, 1.0774, 846500, 0.0443, -0.3128, -0.1035, -0.0338, -0.0981, 0.1109, 0.0000, 169, 155
15.2000, -0.0798, -1.7562, -0.1680, 0.0710, -0.0051, 1.0770, 846540, 0.0444, -0.3127, -0.1035, -0.0338, -0.0980, 0.1108, -0.0976, 161, 161
15.2150, 0.7719, -3.3340, 0.0409, 0.0183, -0.0040, 1.0762, 846560, 0.0443, -0.3128, -0.1035, -0.0339, -0.0980, 0.1108, -0.1446, 163, 158
15.2310, 0.7719, -3.3340, 0.0409, 0.0183, -0.0040, 1.0762, 846560, 0.0443, -0.3127, -0.1035, -0.0338, -0.0983, 0.1108, -0.1446, 163, 158
15.2470, 0.1062, -2.8375, 0.0285, -0.0789, -0.0061, 1.0760, 846600, 0.0444, -0.3127, -0.1034, -0.0338, -0.0979, 0.1108, -0.2308, 176, 145
15.2780, -0.1285, -2.0134, -0.1298, -0.1663, -0.0061, 1.0748, 846640, 0.0443, -0.3128, -0.1035, -0.0339, -0.0981, 0.1108, -0.3026, 165, 159
15.2930, -0.1285, -2.0134, -0.1298, -0.1663, -0.0061, 1.0748, 846640, 0.0444, -0.3127, -0.1034, -0.0339, -0.0980, 0.1109, -0.3026, 165, 159
15.3090, -0.1382, -2.2809, 0.2900, -0.2072, -0.0065, 1.0749, 846660, 0.0444, -0.3128, -0.1035, -0.0338, -0.0981, 0.1108, -0.3315, 168, 157
15.3250, -0.1382, -2.2809, 0.2900, -0.2072, -0.0065, 1.0749, 846660, 0.0443, -0.3128, -0.1035, -0.0339, -0.0981, 0.1108, -0.3315, 168, 157
15.3560, -0.1502, -1.1988, -0.2344, -0.2864, -0.0058, 1.0749, 846700, 0.0444, -0.3127, -0.1035, -0.0338, -0.0980, 0.1109, -0.3735, 169, 160
15.3720, 0.1691, -1.8105, 0.1473, -0.3222, -0.0059, 1.0751, 846720, 0.0443, -0.3127, -0.1035, -0.0339, -0.0982, 0.1107, -0.3857, 184, 146
15.3870, 0.1691, -1.8105, 0.1473, -0.3222, -0.0059, 1.0751, 846720, 0.0444, -0.3127, -0.1035, -0.0339, -0.0981, 0.1107, -0.3857, 184, 146
15.4180, -0.5709, -1.2759, -0.0637, -0.3725, -0.0079, 1.0760, 846760, 0.0443, -0.3127, -0.1035, -0.0338, -0.0981, 0.1109, -0.3919, 183, 150
15.4340, 0.1333, -0.5255, -0.0785, -0.4067, -0.0075, 1.0760, 846800, 0.0444, -0.3127, -0.1035, -0.0338, -0.0982, 0.1107, -0.3735, 187, 149
15.4500, 0.1333, -0.5255, -0.0785, -0.4067, -0.0075, 1.0760, 846800, 0.0443, -0.3127, -0.1035, -0.0338, -0.0980, 0.1109, -0.3735, 187, 149
15.4650, -0.1755, -0.3653, 0.2051, -0.4149, -0.0086, 1.0767, 846820, 0.0444, -0.3128, -0.1035, -0.0338, -0.0981, 0.1107, -0.3553, 187, 150
15.4970, -0.0573, 0.9340, -0.1223, -0.4098, -0.0093, 1.0777, 846860, 0.0444, -0.3127, -0.1034, -0.0339, -0.0981, 0.1108, -0.3026, 182, 155
15.5120, -0.0573, 0.9340, -0.1223, -0.4098, -0.0093, 1.0777, 846860, 0.0443, -0.3127, -0.1035, -0.0338, -0.0981, 0.1107, -0.3026, 182, 155
15.5280, 0.5454, 0.8867, -0.0814, -0.3957, -0.0082, 1.0781, 846880, 0.0443, -0.3127, -0.1035, -0.0339, -0.0981, 0.1107, -0.2688, 181, 156
15.5590, -0.3865, 1.2751, 0.2158, -0.3498, -0.0103, 1.0779, 846920, 0.0444, -0.3127, -0.1035, -0.0339, -0.0981, 0.1108, -0.1892, 182, 150
15.5750, -0.3865, 1.2751, 0.2158, -0.3498, -0.0103, 1.0779, 846920, 0.0443, -0.3128, -0.1035, -0.0339, -0.0981, 0.1107, -0.1892, 182, 150
15.5900, -0.1876, 2.5959, -0.0785, -0.2815, -0.0119, 1.0795, 846960, 0.0444, -0.3127, -0.1035, -0.0338, -0.0981, 0.1108, -0.0976, 168, 161
15.6060, -0.1876, 2.5959, -0.0785, -0.2815, -0.0119, 1.0795, 846960, 0.0444, -0.3127, -0.1035, -0.0338, -0.0980, 0.1107, -0.0976, 168, 161
15.6370, 0.3209, 2.2814, -0.1145, -0.2346, -0.0127, 1.0791, 846980, 0.0443, -0.3127, -0.1035, -0.0339, -0.0982, 0.1109, -0.0493, 166, 160
15.6530, -0.1242, 2.1223, 0.1545, -0.1321, -0.0112, 1.0786, 847020, 0.0444, -0.3127, -0.1035, -0.0339, -0.0980, 0.1109, 0.0493, 161, 162
15.6680, -0.1242, 2.1223, 0.1545, -0.1321, -0.0112, 1.0786, 847020, 0.0443, -0.3127, -0.1035, -0.0338, -0.0982, 0.1108, 0.0493, 161, 162
15.7000, 0.1059, 2.1820, 0.1804, -0.0831, -0.0126, 1.0790, 847040, 0.0444, -0.3127, -0.1035, -0.0339, -0.0980, 0.1109, 0.0976, 170, 151
15.7150, -0.1709, 2.7682, -0.0317, 0.0175, -0.0113, 1.0779, 847080, 0.0444, -0.3127, -0.1035, -0.0339, -0.0981, 0.1107, 0.1892, 162, 159
15.7310, -0.1709, 2.7682, -0.0317, 0.0175, -0.0113, 1.0779, 847080, 0.0443, -0.3127, -0.1035, -0.0339, -0.0981, 0.1109, 0.1892, 162, 159
15.7460, -0.1379, 2.1672, 0.1769, 0.1086, -0.0098, 1.0781, 847120, 0.0443, -0.3127, -0.1035, -0.0338, -0.0980, 0.1108, 0.2688, 178, 143
15.7780, -0.1379, 2.1672, 0.1769, 0.1086, -0.0098, 1.0781, 847120, 0.0443, -0.3127, -0.1035, -0.0338, -0.0982, 0.1107, 0.2688, 178, 143
15.7930, -0.1379, 2.1672, 0.1769, 0.1086, -0.0098, 1.0781, 847120, 0.0443, -0.3127, -0.1035, -0.0338, -0.0981, 0.1108, 0.2688, 178, 143
15.8090, 0.2975, 1.8925, 0.0753, 0.1892, -0.0127, 1.0776, 847160, 0.0443, -0.3127, -0.1035, -0.0338, -0.0982, 0.1107, 0.3315, 161, 163
15.8400, -0.4174, 2.3360, 0.0511, 0.2667, -0.0131, 1.0776, 847200, 0.0443, -0.3127, -0.1035, -0.0338, -0.0982, 0.1109, 0.3735, 156, 172
15.8560, -0.4174, 2.3360, 0.0511, 0.2667, -0.0131, 1.0776, 847200, 0.0443, -0.3127, -0.1035, -0.0339, -0.0982, 0.1108, 0.3735, 156, 172
15.8710, 0.4231, 1.8331, -0.1024, 0.3044, -0.0126, 1.0770, 847220, 0.0443, -0.3127, -0.1035, -0.0339, -0.0981, 0.1108, 0.3857, 150, 179
15.8870, 0.4231, 1.8331, -0.1024, 0.3044, -0.0126, 1.0770, 847220, 0.0443, -0.3128, -0.1035, -0.0339, -0.0981, 0.1107, 0.3857, 150, 179
15.9180, -0.3104, 1.0152, 0.1341, 0.3592, -0.0112, 1.0765, 847260, 0.0443, -0.3127, -0.1035, -0.0338, -0.0982, 0.1108, 0.3919, 156, 177
15.9340, 0.0349, 0.4456, -0.0597, 0.3793, -0.0112, 1.0765, 847280, 0.0443, -0.3127, -0.1035, -0.0338, -0.0980, 0.1109, 0.3857, 161, 175
15.9500, 0.0349, 0.4456, -0.0597, 0.3793, -0.0112, 1.0765, 847280, 0.0443, -0.3128, -0.1035, -0.0338, -0.0982, 0.1107, 0.3857, 161, 175
15.9650, 0.0508, 0.0320, 0.0943, 0.3978, -0.0099, 1.0758, 847320, 0.0444, -0.3127, -0.1035, -0.0338, -0.0979, 0.1109, 0.3553, 148, 187
15.9960, -0.0457, -0.0831, -0.0228, 0.3997, -0.0112, 1.0755, 847360, 0.0443, -0.3127, -0.1035, -0.0339, -0.0981, 0.1108, 0.3026, 147, 188
16.0120, -0.0457, -0.0831, -0.0228, 0.3997, -0.0112, 1.0755, 847360, 0.0443, -0.3127, -0.1035, -0.0339, -0.0982, 0.1108, 0.3026, 147, 188
16.0280, 0.1314, -1.1179, 0.0102, 0.3875, -0.0108, 1.0751, 847380, 0.0443, -0.3127, -0.1035, -0.0338, -0.0980, 0.1108, 0.2688, 148, 187
16.0590, -0.1532, -1.3211, 0.1650, 0.3665, -0.0106, 1.0749, 847400, 0.0443, -0.3128, -0.1035, -0.0338, -0.0982, 0.1107, 0.2308, 160, 174
16.0750, -0.1532, -1.3211, 0.1650, 0.3665, -0.0106, 1.0749, 847400, 0.0444, -0.3127, -0.1035, -0.0339, -0.0980, 0.1109, 0.2308, 160, 174
16.0900, -0.1605, -1.3751, -0.1379, 0.3067, -0.0124, 1.0732, 847440, 0.0443, -0.3128, -0.1035, -0.0338, -0.0981, 0.1107, 0.1446, 144, 184
16.1060, -0.1605, -1.3751, -0.1379, 0.3067, -0.0124, 1.0732, 847440, 0.0443, -0.3127, -0.1035, -0.0338, -0.0981, 0.1109, 0.1446, 144, 184
16.1370, -0.2250, -2.1142, 0.2317, 0.2325, -0.0093, 1.0734, 847480, 0.0444, -0.3127, -0.1035, -0.0338, -0.0978, 0.1109, 0.0493, 156, 171
16.1530, -0.7999, -1.8686, -0.1056, 0.1878, -0.0103, 1.0730, 847500, 0.0443, -0.3128, -0.1035, -0.0339, -0.0982, 0.1108, 0.0000, 153, 171
16.1680, -0.7999, -1.8686, -0.1056, 0.1878, -0.0103, 1.0730, 847500, 0.0444, -0.3127, -0.1035, -0.0339, -0.0980, 0.1108, 0.0000, 153, 171
16.1990, 0.5249, -2.7265, 0.1634, 0.0906, -0.0098, 1.0722, 847540, 0.0443, -0.3127, -0.1035, -0.0338, -0.0981, 0.1108, -0.0976, 156, 166
16.2150, 0.1718, -2.4956, -0.2911, -0.0141, -0.0082, 1.0713, 847580, 0.0444, -0.3127, -0.1035, -0.0339, -0.0981, 0.1108, -0.1892, 153, 168
16.2310, 0.1718, -2.4956, -0.2911, -0.0141, -0.0082, 1.0713, 847580, 0.0443, -0.3127, -0.1035, -0.0338, -0.0981, 0.1108, -0.1892, 153, 168
16.2460, 0.3663, -2.8668, 0.0607, -0.0695, -0.0066, 1.0713, 847600, 0.0443, -0.3128, -0.1035, -0.0338, -0.0982, 0.1108, -0.2308, 171, 150
16.2780, -0.0640, -2.8948, -0.0384, -0.1714, -0.0061, 1.0716, 847640, 0.0444, -0.3127, -0.1035, -0.0339, -0.0981, 0.1109, -0.3026, 169, 155
16.2930, -0.0640, -2.8948, -0.0384, -0.1714, -0.0061, 1.0716, 847640, 0.0443, -0.3127, -0.1035, -0.0338, -0.0981, 0.1108, -0.3026, 169, 155
16.3090, 0.4991, -1.4713, -0.1887, -0.2105, -0.0051, 1.0720, 847660, 0.0443, -0.3127, -0.1035, -0.0338, -0.0981, 0.1108, -0.3315, 156, 169
16.3400, -0.0597, -1.7422, 0.2771, -0.2791, -0.0054, 1.0727, 847700, 0.0443, -0.3127, -0.1034, -0.0338, -0.0981, 0.1108, -0.3735, 172, 157
16.3560, -0.0597, -1.7422, 0.2771, -0.2791, -0.0054, 1.0727, 847700, 0.0443, -0.3127, -0.1035, -0.0338, -0.0981, 0.1108, -0.3735, 172, 157
16.3710, -0.3201, -0.8878, -0.3629, -0.3388, -0.0061, 1.0732, 847740, 0.0444, -0.3127, -0.1035, -0.0339, -0.0980, 0.1108, -0.3919, 177, 155
16.3870, -0.3201, -0.8878, -0.3629, -0.3388, -0.0061, 1.0732, 847740, 0.0443, -0.3127, -0.1035, -0.0339, -0.0981, 0.1108, -0.3919, 177, 155
16.4180, 0.2927, -1.3936, 0.0594, -0.3662, -0.0061, 1.0736, 847760, 0.0443, -0.3128, -0.1035, -0.0339, -0.0980, 0.1108, -0.3919, 186, 146
16.4340, -0.1653, -0.6800, 0.1175, -0.4047, -0.0056, 1.0743, 847800, 0.0443, -0.3127, -0.1034, -0.0338, -0.0982, 0.1107, -0.3735, 186, 150
16.4490, -0.1653, -0.6800, 0.1175, -0.4047, -0.0056, 1.0743, 847800, 0.0444, -0.3127, -0.1035, -0.0337, -0.0980, 0.1109, -0.3735, 186, 150
16.4650, 0.3319, 0.0637, 0.0220, -0.4114, -0.0063, 1.0748, 847820, 0.0443, -0.3127, -0.1035, -0.0339, -0.0981, 0.1107, -0.3553, 182, 155
16.4960, -0.0024, 0.4295, -0.0280, -0.4065, -0.0059, 1.0748, 847860, 0.0444, -0.3127, -0.1035, -0.0338, -0.0980, 0.1109, -0.3026, 187, 149
16.5120, -0.0024, 0.4295, -0.0280, -0.4065, -0.0059, 1.0748, 847860, 0.0443, -0.3127, -0.1035, -0.0339, -0.0981, 0.1107, -0.3026, 187, 149
16.5280, -0.4424, 1.3254, 0.1115, -0.3786, -0.0079, 1.0760, 847900, 0.0443, -0.3127, -0.1035, -0.0339, -0.0981, 0.1108, -0.2308, 189, 144
16.5590, 0.0465, 1.3256, -0.0417, -0.3499, -0.0082, 1.0760, 847920, 0.0444, -0.3127, -0.1035, -0.0339, -0.0980, 0.1108, -0.1892, 188, 143
16.5740, 0.0465, 1.3256, -0.0417, -0.3499, -0.0082, 1.0760, 847920, 0.0443, -0.3127, -0.1035, -0.0338, -0.0981, 0.1108, -0.1892, 188, 143
16.5900, -0.1282, 2.4271, -0.1951, -0.2806, -0.0079, 1.0758, 847960, 0.0443, -0.3127, -0.1035, -0.0339, -0.0981, 0.1109, -0.0976, 168, 161
16.6060, -0.1282, 2.4271, -0.1951, -0.2806, -0.0079, 1.0758, 847960, 0.0444, -0.3128, -0.1035, -0.0338, -0.0981, 0.1108, -0.0976, 168, 161
16.6370, -0.0210, 1.8132, 0.3647, -0.2393, -0.0084, 1.0763, 847980, 0.0443, -0.3127, -0.1035, -0.0339, -0.0981, 0.1108, -0.0493, 177, 149
16.6530, -0.1930, 2.0417, -0.0710, -0.1470, -0.0113, 1.0767, 848020, 0.0444, -0.3127, -0.1035, -0.0338, -0.0980, 0.1109, 0.0493, 173, 150
16.6680, -0.1930, 2.0417, -0.0710, -0.1470, -0.0113, 1.0767, 848020, 0.0443, -0.3127, -0.1034, -0.0339, -0.0982, 0.1107, 0.0493, 173, 150
16.6990, 0.0927, 2.7838, -0.1672, -0.1012, -0.0082, 1.0765, 848040, 0.0443, -0.3127, -0.1035, -0.0338, -0.0981, 0.1109, 0.0976, 163, 159
16.7150, -0.1486, 2.9117, 0.1024, -0.0480, -0.0075, 1.0760, 848060, 0.0443, -0.3127, -0.1034, -0.0338, -0.0980, 0.1108, 0.1446, 160, 162
16.7310, -0.1486, 2.9117, 0.1024, -0.0480, -0.0075, 1.0760, 848060, 0.0444, -0.3128, -0.1035, -0.0339, -0.0982, 0.1109, 0.1446, 160, 162
16.7460, 0.0159, 2.9681, 0.1852, 0.0583, -0.0073, 1.0772, 848100, 0.0443, -0.3127, -0.1035, -0.0339, -0.0981, 0.1108, 0.2308, 160, 161
16.7770, 0.1494, 2.3653, 0.0056, 0.1557, -0.0080, 1.0767, 848140, 0.0443, -0.3127, -0.1035, -0.0338, -0.0981, 0.1107, 0.3026, 152, 171
16.7930, 0.1494, 2.3653, 0.0056, 0.1557, -0.0080, 1.0767, 848140, 0.0443, -0.3127, -0.1035, -0.0338, -0.0981, 0.1109, 0.3026, 152, 171
16.8090, 0.2080, 1.6213, 0.2422, 0.1962, -0.0079, 1.0776, 848160, 0.0443, -0.3127, -0.1035, -0.0338, -0.0981, 0.1108, 0.3315, 167, 158
16.8400, 0.3938, 1.8266, -0.1398, 0.2744, -0.0077, 1.0770, 848200, 0.0443, -0.3128, -0.1035, -0.0338, -0.0982, 0.1108, 0.3735, 151, 177
16.8560, 0.3938, 1.8266, -0.1398, 0.2744, -0.0077, 1.0770, 848200, 0.0443, -0.3127, -0.1035, -0.0338, -0.0981, 0.1108, 0.3735, 151, 177
16.8710, 0.4387, 1.7379, 0.0427, 0.3098, -0.0070, 1.0769, 848220, 0.0443, -0.3127, -0.1035, -0.0338, -0.0982, 0.1108, 0.3857, 149, 180
16.8870, 0.4387, 1.7379, 0.0427, 0.3098, -0.0070, 1.0769, 848220, 0.0444, -0.3127, -0.1035, -0.0338, -0.0981, 0.1108, 0.3857, 149, 180
16.9180, -0.2803, 1.0254, -0.0895, 0.3632, -0.0089, 1.0758, 848260, 0.0443, -0.3127, -0.1034, -0.0339, -0.0981, 0.1107, 0.3919, 158, 176
16.9340, 0.2817, 0.5940, 0.1094, 0.3971, -0.0054, 1.0755, 848300, 0.0443, -0.3127, -0.1035, -0.0339, -0.0981, 0.1108, 0.3735, 147, 188
16.9490, 0.2817, 0.5940, 0.1094, 0.3971, -0.0054, 1.0755, 848300, 0.0443, -0.3127, -0.1034, -0.0339, -0.0981, 0.1108, 0.3735, 147, 188
16.9810, -0.5265, 0.3822, 0.0339, 0.4054, -0.0061, 1.0751, 848320, 0.0443, -0.3127, -0.1035, -0.0338, -0.0980, 0.1109, 0.3553, 147, 188
16.9960, 0.3682, -0.5462, 0.0223, 0.3997, -0.0058, 1.0741, 848360, 0.0443, -0.3127, -0.1035, -0.0339, -0.0980, 0.1107, 0.3026, 149, 186
17.0120, 0.3682, -0.5462, 0.0223, 0.3997, -0.0058, 1.0741, 848360, 0.0443, -0.3127, -0.1035, -0.0338, -0.0980, 0.1108, 0.3026, 149, 186
17.0270, 0.3088, -1.1087, 0.1658, 0.3875, -0.0052, 1.0739, 848380, 0.0443, -0.3127, -0.1035, -0.0339, -0.0981, 0.1107, 0.2688, 155, 181
17.0590, -0.0368, -1.1636, -0.2903, 0.3405, -0.0063, 1.0727, 848420, 0.0443, -0.3127, -0.1035, -0.0339, -0.0981, 0.1108, 0.1892, 138, 191
17.0740, -0.0368, -1.1636, -0.2903, 0.3405, -0.0063, 1.0727, 848420, 0.0443, -0.3127, -0.1035, -0.0338, -0.0981, 0.1108, 0.1892, 138, 191
17.0900, 0.7050, -2.7577, 0.2317, 0.2679, -0.0031, 1.0725, 848460, 0.0444, -0.3128, -0.1035, -0.0338, -0.0981, 0.1108, 0.0976, 160, 168
17.1060, 0.7050, -2.7577, 0.2317, 0.2679, -0.0031, 1.0725, 848460, 0.0443, -0.3127, -0.1035, -0.0339, -0.0981, 0.1108, 0.0976, 160, 168
17.1370, -0.5776, -2.1398, -0.0938, 0.2229, -0.0031, 1.0718, 848480, 0.0443, -0.3128, -0.1035, -0.0338, -0.0981, 0.1108, 0.0493, 170, 156
17.1520, -0.1016, -2.3177, 0.2473, 0.1237, -0.0005, 1.0690, 848520, 0.0443, -0.3127, -0.1035, -0.0338, -0.0982, 0.1108, -0.0493, 170, 153
17.1680, -0.1016, -2.3177, 0.2473, 0.1237, -0.0005, 1.0690, 848520, 0.0443, -0.3127, -0.1035, -0.0338, -0.0979, 0.1109, -0.0493, 170, 153
17.1990, 0.7760, -3.0939, 0.0215, 0.0717, -0.0002, 1.0690, 848540, 0.0443, -0.3127, -0.1035, -0.0338, -0.0982, 0.1108, -0.0976, 158, 164
17.2150, 0.0710, -2.1941, -0.0908, -0.0222, -0.0031, 1.0678, 848580, 0.0443, -0.3127, -0.1035, -0.0338, -0.0981, 0.1108, -0.1892, 154, 167
17.2300, 0.0710, -2.1941, -0.0908, -0.0222, -0.0031, 1.0678, 848580, 0.0443, -0.3127, -0.1035, -0.0338, -0.0980, 0.1108, -0.1892, 154, 167
17.2460, -0.1110, -2.2325, 0.1105, -0.1108, -0.0026, 1.0678, 848620, 0.0444, -0.3127, -0.1035, -0.0339, -0.0981, 0.1109, -0.2688, 164, 159
17.2770, -0.2570, -1.6707, -0.1016, -0.1587, -0.0028, 1.0678, 848640, 0.0444, -0.3127, -0.1035, -0.0338, -0.0979, 0.1107, -0.3026, 154, 170
17.2930, -0.2570, -1.6707, -0.1016, -0.1587, -0.0028, 1.0678, 848640, 0.0443, -0.3127, -0.1035, -0.0338, -0.0982, 0.1107, -0.3026, 154, 170
17.3090, -0.3825, -2.2373, 0.0626, -0.2539, -0.0007, 1.0676, 848680, 0.0443, -0.3127, -0.1035, -0.0339, -0.0981, 0.1108, -0.3553, 185, 139
17.3400, -0.0836, -2.2303, 0.2793, -0.2937, -0.0016, 1.0678, 848700, 0.0444, -0.3127, -0.1035, -0.0339, -0.0979, 0.1106, -0.3735, 180, 149
17.3550, -0.0836, -2.2303, 0.2793, -0.2937, -0.0016, 1.0678, 848700, 0.0443, -0.3127, -0.1034, -0.0338, -0.0982, 0.1107, -0.3735, 180, 149
17.3710, 0.3779, -1.9325, 0.0919, -0.3266, -0.0009, 1.0683, 848720, 0.0444, -0.3127, -0.1035, -0.0339, -0.0981, 0.1109, -0.3857, 183, 147
17.3870, 0.3779, -1.9325, 0.0919, -0.3266, -0.0009, 1.0683, 848720, 0.0443, -0.3127, -0.1035, -0.0338, -0.0981, 0.1107, -0.3857, 183, 147
17.4180, 0.3371, -0.9372, -0.0443, -0.3759, -0.0003, 1.0680, 848760, 0.0443, -0.3127, -0.1035, -0.0338, -0.0981, 0.1108, -0.3919, 181, 153
17.4340, 0.0699, -0.8598, 0.1425, -0.3969, 0.0002, 1.0687, 848780, 0.0443, -0.3127, -0.1035, -0.0339, -0.0981, 0.1108, -0.3857, 188, 147
17.4490, 0.0699, -0.8598, 0.1425, -0.3969, 0.0002, 1.0687, 848780, 0.0444, -0.3127, -0.1035, -0.0339, -0.0980, 0.1108, -0.3857, 188, 147
17.4800, 0.2803, -0.2545, -0.0720, -0.4187, -0.0019, 1.0701, 848820, 0.0443, -0.3127, -0.1035, -0.0338, -0.0982, 0.1108, -0.3553, 194, 141
17.4960, 0.2091, 0.7112, 0.0191, -0.4086, -0.0016, 1.0706, 848860, 0.0443, -0.3127, -0.1034, -0.0338, -0.0981, 0.1108, -0.3026, 182, 155
17.5120, 0.2091, 0.7112, 0.0191, -0.4086, -0.0016, 1.0706, 848860, 0.0443, -0.3128, -0.1036, -0.0339, -0.0981, 0.1109, -0.3026, 182, 155
