time (s), gyro_x (rad/s), gyro_y (rad/s), gyro_z (rad/s), imu_pitch (rad), imu_roll (rad), imu_yaw (rad), counter, x (m), y (m), z (m), yaw (rad), pitch (rad), roll (rad), angle_pitch_desired (rad), mu1, mu2
0.0000, -0.4182, -0.0446, 0.0271, 0.3487, -0.0178, 0.9004, 270966, 0.0443, -0.3127, -0.1034, -0.0339, -0.0980, 0.1108, 0.3680, 178, 154
0.0160, -0.4182, -0.0446, 0.0271, 0.3487, -0.0178, 0.9004, 270966, 0.0443, -0.3127, -0.1034, -0.0339, -0.0979, 0.1108, 0.3680, 178, 154
0.0320, 0.0067, 0.4333, -0.1121, 0.3515, -0.0180, 0.9004, 270986, 0.0443, -0.3127, -0.1034, -0.0338, -0.0980, 0.1108, 0.3713, 164, 169
0.0630, -0.1441, 0.1521, 0.1330, 0.3707, -0.0169, 0.9013, 271026, 0.0444, -0.3127, -0.1034, -0.0339, -0.0979, 0.1109, 0.3772, 166, 169
0.0780, -0.1441, 0.1521, 0.1330, 0.3707, -0.0169, 0.9013, 271026, 0.0443, -0.3127, -0.1034, -0.0339, -0.0980, 0.1110, 0.3772, 166, 169
0.0940, 0.3268, -0.4542, 0.0250, 0.3712, -0.0164, 0.9015, 271066, 0.0444, -0.3127, -0.1034, -0.0339, -0.0978, 0.1109, 0.3822, 179, 156
0.1100, 0.3268, -0.4542, 0.0250, 0.3712, -0.0164, 0.9015, 271066, 0.0444, -0.3127, -0.1034, -0.0339, -0.0980, 0.1108, 0.3822, 179, 156
0.1410, -0.1309, -0.1648, 0.0994, 0.3695, -0.0171, 0.9022, 271086, 0.0443, -0.3127, -0.1033, -0.0338, -0.0980, 0.1109, 0.3844, 174, 160
0.1570, -0.0882, 0.4257, -0.0938, 0.3793, -0.0176, 0.9022, 271126, 0.0443, -0.3127, -0.1034, -0.0339, -0.0979, 0.1109, 0.3879, 159, 176
0.1720, -0.0882, 0.4257, -0.0938, 0.3793, -0.0176, 0.9022, 271126, 0.0443, -0.3127, -0.1034, -0.0339, -0.0980, 0.1109, 0.3879, 159, 176
0.1880, -0.0882, 0.4257, -0.0938, 0.3793, -0.0176, 0.9022, 271126, 0.0443, -0.3127, -0.1033, -0.0339, -0.0979, 0.1109, 0.3879, 159, 176
0.2190, 0.2583, -0.0828, 0.1769, 0.3843, -0.0169, 0.9029, 271146, 0.0443, -0.3127, -0.1034, -0.0338, -0.0981, 0.1108, 0.3893, 172, 164
0.2350, -0.0812, -0.0793, 0.1570, 0.3829, -0.0175, 0.9032, 271186, 0.0443, -0.3127, -0.1033, -0.0339, -0.0980, 0.1109, 0.3914, 172, 164
0.2500, -0.0812, -0.0793, 0.1570, 0.3829, -0.0175, 0.9032, 271186, 0.0443, -0.3127, -0.1034, -0.0338, -0.0980, 0.1108, 0.3914, 172, 164
0.2820, -0.2174, 0.7289, -0.2669, 0.3873, -0.0162, 0.9041, 271226, 0.0443, -0.3127, -0.1033, -0.0338, -0.0982, 0.1107, 0.3925, 157, 178
0.2970, 0.3134, -0.2126, 0.2258, 0.3922, -0.0162, 0.9039, 271246, 0.0443, -0.3127, -0.1034, -0.0339, -0.0980, 0.1109, 0.3927, 168, 169
0.3130, 0.3134, -0.2126, 0.2258, 0.3922, -0.0162, 0.9039, 271246, 0.0443, -0.3127, -0.1034, -0.0339, -0.0981, 0.1108, 0.3927, 168, 169
0.3280, -0.3790, -0.0091, -0.2443, 0.3889, -0.0175, 0.9041, 271286, 0.0443, -0.3126, -0.1033, -0.0338, -0.0981, 0.1109, 0.3923, 168, 169
0.3600, 0.3879, -0.5416, 0.2965, 0.3836, -0.0166, 0.9046, 271306, 0.0443, -0.3127, -0.1034, -0.0339, -0.0980, 0.1108, 0.3917, 179, 156
0.3750, 0.3879, -0.5416, 0.2965, 0.3836, -0.0166, 0.9046, 271306, 0.0443, -0.3127, -0.1033, -0.0339, -0.0981, 0.1107, 0.3917, 179, 156
0.3910, 0.0908, 0.5230, -0.1328, 0.3896, -0.0154, 0.9048, 271346, 0.0443, -0.3127, -0.1034, -0.0338, -0.0980, 0.1109, 0.3898, 154, 181
0.4220, -0.7055, 0.4421, -0.1884, 0.3988, -0.0143, 0.9062, 271386, 0.0443, -0.3127, -0.1034, -0.0339, -0.0982, 0.1107, 0.3870, 165, 172
0.4380, -0.7055, 0.4421, -0.1884, 0.3988, -0.0143, 0.9062, 271386, 0.0443, -0.3126, -0.1033, -0.0338, -0.0981, 0.1109, 0.3870, 165, 172
0.4530, 0.1465, -0.3532, 0.0078, 0.3960, -0.0148, 0.9062, 271406, 0.0443, -0.3127, -0.1034, -0.0339, -0.0979, 0.1109, 0.3852, 166, 171
0.4690, 0.1465, -0.3532, 0.0078, 0.3960, -0.0148, 0.9062, 271406, 0.0443, -0.3127, -0.1034, -0.0340, -0.0981, 0.1108, 0.3852, 166, 171
0.5000, -0.4784, 0.1390, -0.2647, 0.3808, -0.0141, 0.9069, 271446, 0.0443, -0.3126, -0.1034, -0.0338, -0.0979, 0.1110, 0.3808, 169, 167
0.5160, 0.2871, 0.1188, 0.0702, 0.3796, -0.0134, 0.9072, 271466, 0.0442, -0.3127, -0.1034, -0.0338, -0.0981, 0.1108, 0.3783, 161, 174
0.5320, 0.2871, 0.1188, 0.0702, 0.3796, -0.0134, 0.9072, 271466, 0.0443, -0.3126, -0.1034, -0.0339, -0.0980, 0.1109, 0.3783, 161, 174
0.5630, -0.1322, 0.2215, -0.1051, 0.3850, -0.0136, 0.9083, 271506, 0.0443, -0.3127, -0.1033, -0.0338, -0.0980, 0.1108, 0.3726, 160, 175
0.5780, -0.2889, -0.4884, 0.0624, 0.3772, -0.0133, 0.9088, 271546, 0.0443, -0.3127, -0.1034, -0.0339, -0.0980, 0.1109, 0.3658, 173, 162
0.5940, -0.2889, -0.4884, 0.0624, 0.3772, -0.0133, 0.9088, 271546, 0.0443, -0.3127, -0.1034, -0.0339, -0.0980, 0.1110, 0.3658, 173, 162
0.6100, 0.1683, 0.0917, -0.1172, 0.3721, -0.0138, 0.9090, 271566, 0.0443, -0.3127, -0.1033, -0.0339, -0.0981, 0.1108, 0.3621, 164, 171
0.6410, -0.0339, -0.1320, -0.0108, 0.3651, -0.0129, 0.9097, 271606, 0.0443, -0.3127, -0.1034, -0.0339, -0.0980, 0.1109, 0.3541, 169, 165
0.6560, -0.0339, -0.1320, -0.0108, 0.3651, -0.0129, 0.9097, 271606, 0.0443, -0.3126, -0.1033, -0.0339, -0.0981, 0.1108, 0.3541, 169, 165
0.6720, 0.0538, -0.0255, -0.1666, 0.3637, -0.0140, 0.9098, 271626, 0.0443, -0.3127, -0.1034, -0.0339, -0.0982, 0.1108, 0.3497, 158, 176
0.7030, -0.1489, 0.1408, -0.1519, 0.3566, -0.0145, 0.9111, 271666, 0.0443, -0.3127, -0.1033, -0.0338, -0.0981, 0.1109, 0.3403, 160, 174
0.7190, -0.1489, 0.1408, -0.1519, 0.3566, -0.0145, 0.9111, 271666, 0.0443, -0.3127, -0.1034, -0.0338, -0.0980, 0.1108, 0.3403, 160, 174
0.7350, 0.0443, -0.7018, 0.1570, 0.3419, -0.0148, 0.9114, 271706, 0.0443, -0.3127, -0.1034, -0.0339, -0.0981, 0.1109, 0.3300, 180, 152
0.7500, 0.0443, -0.7018, 0.1570, 0.3419, -0.0148, 0.9114, 271706, 0.0443, -0.3127, -0.1033, -0.0338, -0.0980, 0.1107, 0.3300, 180, 152
0.7810, -0.2199, 0.1309, -0.2247, 0.3360, -0.0159, 0.9118, 271726, 0.0443, -0.3127, -0.1034, -0.0339, -0.0980, 0.1108, 0.3245, 163, 169
0.7970, 0.0771, -0.2881, 0.1024, 0.3307, -0.0154, 0.9132, 271766, 0.0443, -0.3127, -0.1033, -0.0338, -0.0981, 0.1107, 0.3130, 169, 163
0.8130, 0.0771, -0.2881, 0.1024, 0.3307, -0.0154, 0.9132, 271766, 0.0443, -0.3127, -0.1034, -0.0339, -0.0980, 0.1108, 0.3130, 169, 163
0.8280, -0.4171, 0.2664, -0.2094, 0.3283, -0.0169, 0.9126, 271786, 0.0443, -0.3127, -0.1034, -0.0339, -0.0980, 0.1109, 0.3069, 158, 174
0.8600, -0.2704, -0.5467, -0.0325, 0.3091, -0.0164, 0.9142, 271826, 0.0443, -0.3127, -0.1033, -0.0338, -0.0982, 0.1108, 0.2942, 179, 151
0.8750, -0.2704, -0.5467, -0.0325, 0.3091, -0.0164, 0.9142, 271826, 0.0443, -0.3127, -0.1034, -0.0339, -0.0978, 0.1109, 0.2942, 179, 151
0.8910, -0.1680, -0.4642, -0.0984, 0.3016, -0.0178, 0.9140, 271846, 0.0443, -0.3127, -0.1033, -0.0339, -0.0982, 0.1108, 0.2876, 161, 169
0.9220, 0.5970, -0.5550, 0.3002, 0.2953, -0.0164, 0.9149, 271866, 0.0444, -0.3127, -0.1034, -0.0339, -0.0979, 0.1109, 0.2808, 167, 163
0.9380, 0.5970, -0.5550, 0.3002, 0.2953, -0.0164, 0.9149, 271866, 0.0443, -0.3127, -0.1034, -0.0339, -0.0980, 0.1108, 0.2808, 167, 163
0.9530, 0.2008, -0.2478, 0.0546, 0.2845, -0.0168, 0.9146, 271906, 0.0443, -0.3127, -0.1034, -0.0339, -0.0980, 0.1109, 0.2667, 162, 167
0.9690, 0.2008, -0.2478, 0.0546, 0.2845, -0.0168, 0.9146, 271906, 0.0443, -0.3127, -0.1034, -0.0339, -0.0979, 0.1109, 0.2667, 162, 167
1.0000, -0.2282, -0.0331, -0.2156, 0.2723, -0.0155, 0.9151, 271946, 0.0443, -0.3127, -0.1034, -0.0339, -0.0980, 0.1108, 0.2518, 159, 169
1.0160, 0.3236, -0.5628, 0.0129, 0.2625, -0.0152, 0.9154, 271966, 0.0444, -0.3127, -0.1034, -0.0339, -0.0979, 0.1110, 0.2442, 166, 162
1.0310, 0.3236, -0.5628, 0.0129, 0.2625, -0.0152, 0.9154, 271966, 0.0443, -0.3127, -0.1034, -0.0339, -0.0981, 0.1107, 0.2442, 166, 162
1.0630, -0.1844, -0.4854, 0.0339, 0.2541, -0.0147, 0.9163, 271986, 0.0443, -0.3127, -0.1034, -0.0339, -0.0980, 0.1109, 0.2364, 167, 161
1.0780, 0.3008, -0.2755, 0.0414, 0.2456, -0.0145, 0.9165, 272026, 0.0444, -0.3127, -0.1033, -0.0339, -0.0980, 0.1109, 0.2203, 152, 175
1.0940, 0.3008, -0.2755, 0.0414, 0.2456, -0.0145, 0.9165, 272026, 0.0443, -0.3127, -0.1034, -0.0339, -0.0981, 0.1108, 0.2203, 152, 175
1.1090, -0.0927, -0.1263, -0.1382, 0.2251, -0.0154, 0.9170, 272066, 0.0444, -0.3127, -0.1034, -0.0338, -0.0979, 0.1109, 0.2037, 160, 167
1.1410, 0.1298, -0.5784, 0.2414, 0.2066, -0.0147, 0.9180, 272106, 0.0443, -0.3128, -0.1033, -0.0337, -0.0981, 0.1108, 0.1866, 168, 158
1.1560, 0.1298, -0.5784, 0.2414, 0.2066, -0.0147, 0.9180, 272106, 0.0443, -0.3127, -0.1034, -0.0340, -0.0980, 0.1108, 0.1866, 168, 158
1.1720, 0.0339, 0.2228, -0.2449, 0.2056, -0.0150, 0.9182, 272126, 0.0444, -0.3127, -0.1033, -0.0338, -0.0980, 0.1108, 0.1778, 150, 174
1.2030, 0.4368, -1.1165, 0.1382, 0.1927, -0.0147, 0.9194, 272166, 0.0443, -0.3128, -0.1034, -0.0339, -0.0981, 0.1108, 0.1600, 172, 153
1.2190, 0.4368, -1.1165, 0.1382, 0.1927, -0.0147, 0.9194, 272166, 0.0443, -0.3127, -0.1034, -0.0339, -0.0980, 0.1109, 0.1600, 172, 153
1.2340, -0.2567, -0.2881, -0.2150, 0.1803, -0.0141, 0.9198, 272186, 0.0444, -0.3127, -0.1034, -0.0339, -0.0980, 0.1108, 0.1510, 160, 165
1.2500, -0.2567, -0.2881, -0.2150, 0.1803, -0.0141, 0.9198, 272186, 0.0443, -0.3128, -0.1034, -0.0338, -0.0981, 0.1108, 0.1510, 160, 165
1.2810, 0.1132, -0.6698, 0.2005, 0.1599, -0.0150, 0.9210, 272226, 0.0443, -0.3127, -0.1033, -0.0338, -0.0980, 0.1108, 0.1326, 168, 156
1.2970, 0.1056, -0.7924, 0.2021, 0.1438, -0.0164, 0.9214, 272266, 0.0443, -0.3128, -0.1034, -0.0339, -0.0980, 0.1108, 0.1138, 159, 164
1.3130, 0.1056, -0.7924, 0.2021, 0.1438, -0.0164, 0.9214, 272266, 0.0443, -0.3127, -0.1034, -0.0339, -0.0980, 0.1108, 0.1138, 159, 164
1.3280, 0.2051, -1.0031, 0.1954, 0.1326, -0.0155, 0.9226, 272286, 0.0443, -0.3127, -0.1033, -0.0338, -0.0981, 0.1108, 0.1043, 172, 150
1.3590, 0.1709, -0.6040, -0.0059, 0.1152, -0.0155, 0.9219, 272326, 0.0443, -0.3127, -0.1034, -0.0339, -0.0980, 0.1109, 0.0852, 165, 158
1.3750, 0.1709, -0.6040, -0.0059, 0.1152, -0.0155, 0.9219, 272326, 0.0443, -0.3127, -0.1033, -0.0338, -0.0980, 0.1109, 0.0852, 165, 158
1.3910, 0.2540, -0.8434, 0.2113, 0.1051, -0.0140, 0.9233, 272346, 0.0444, -0.3127, -0.1034, -0.0339, -0.0979, 0.1108, 0.0755, 169, 153
1.4220, 0.2916, -0.6160, 0.0462, 0.0876, -0.0143, 0.9238, 272386, 0.0443, -0.3127, -0.1033, -0.0339, -0.0980, 0.1109, 0.0561, 161, 162
1.4380, 0.2916, -0.6160, 0.0462, 0.0876, -0.0143, 0.9238, 272386, 0.0444, -0.3127, -0.1033, -0.0339, -0.0978, 0.1108, 0.0561, 161, 162
1.4530, -0.1906, -0.5316, -0.1825, 0.0625, -0.0152, 0.9248, 272426, 0.0443, -0.3127, -0.1034, -0.0338, -0.0980, 0.1108, 0.0365, 165, 157
1.4690, -0.1906, -0.5316, -0.1825, 0.0625, -0.0152, 0.9248, 272426, 0.0443, -0.3127, -0.1033, -0.0338, -0.0981, 0.1108, 0.0365, 165, 157
1.5000, 0.3841, -0.4048, 0.0091, 0.0517, -0.0141, 0.9252, 272446, 0.0443, -0.3127, -0.1034, -0.0338, -0.0980, 0.1108, 0.0266, 162, 160
1.5160, -0.1231, -0.4964, 0.0761, 0.0386, -0.0155, 0.9261, 272486, 0.0443, -0.3127, -0.1033, -0.0339, -0.0980, 0.1108, 0.0069, 162, 160
1.5310, -0.1231, -0.4964, 0.0761, 0.0386, -0.0155, 0.9261, 272486, 0.0443, -0.3127, -0.1034, -0.0339, -0.0980, 0.1109, 0.0069, 162, 160
1.5620, 0.3349, -0.6351, -0.1188, 0.0304, -0.0147, 0.9257, 272506, 0.0443, -0.3127, -0.1034, -0.0339, -0.0981, 0.1108, -0.0030, 158, 163
1.5780, -0.1344, -0.8700, 0.1218, 0.0157, -0.0145, 0.9264, 272526, 0.0443, -0.3127, -0.1033, -0.0338, -0.0981, 0.1108, -0.0128, 167, 154
1.5940, -0.1344, -0.8700, 0.1218, 0.0157, -0.0145, 0.9264, 272526, 0.0443, -0.3127, -0.1034, -0.0339, -0.0979, 0.1109, -0.0128, 167, 154
1.6090, -0.0285, 0.0621, -0.2419, -0.0028, -0.0145, 0.9269, 272566, 0.0443, -0.3127, -0.1033, -0.0339, -0.0981, 0.1108, -0.0325, 151, 170
1.6410, -0.0906, -0.2951, 0.1618, -0.0059, -0.0150, 0.9269, 272586, 0.0443, -0.3127, -0.1034, -0.0339, -0.0979, 0.1109, -0.0424, 151, 170
1.6560, -0.0906, -0.2951, 0.1618, -0.0059, -0.0150, 0.9269, 272586, 0.0443, -0.3127, -0.1033, -0.0339, -0.0981, 0.1108, -0.0424, 151, 170
1.6720, -0.0414, -0.6642, -0.2475, -0.0305, -0.0143, 0.9275, 272626, 0.0443, -0.3127, -0.1034, -0.0339, -0.0981, 0.1108, -0.0619, 166, 155
1.7030, 0.0693, -0.6040, 0.3360, -0.0579, -0.0154, 0.9285, 272666, 0.0443, -0.3127, -0.1034, -0.0339, -0.0980, 0.1109, -0.0813, 166, 156
1.7190, 0.0693, -0.6040, 0.3360, -0.0579, -0.0154, 0.9285, 272666, 0.0443, -0.3127, -0.1033, -0.0338, -0.0981, 0.1107, -0.0813, 166, 156
1.7340, -0.2298, 0.1347, -0.2158, -0.0618, -0.0152, 0.9297, 272686, 0.0443, -0.3127, -0.1034, -0.0339, -0.0980, 0.1108, -0.0910, 154, 167
1.7500, -0.2298, 0.1347, -0.2158, -0.0618, -0.0152, 0.9297, 272686, 0.0443, -0.3126, -0.1033, -0.0338, -0.0981, 0.1108, -0.0910, 154, 167
1.7810, 0.4698, -1.6533, 0.3126, -0.0873, -0.0143, 0.9308, 272726, 0.0443, -0.3127, -0.1034, -0.0339, -0.0981, 0.1108, -0.1100, 182, 138
1.7970, -0.1742, -1.0929, 0.0855, -0.1100, -0.0138, 0.9313, 272746, 0.0443, -0.3127, -0.1034, -0.0339, -0.0980, 0.1109, -0.1195, 181, 139
1.8120, -0.1742, -1.0929, 0.0855, -0.1100, -0.0138, 0.9313, 272746, 0.0443, -0.3126, -0.1033, -0.0338, -0.0982, 0.1108, -0.1195, 181, 139
1.8440, 0.4008, 0.3669, -0.1618, -0.1143, -0.0143, 0.9318, 272786, 0.0443, -0.3127, -0.1034, -0.0340, -0.0980, 0.1109, -0.1381, 150, 172
1.8590, -0.3575, -1.0547, 0.1390, -0.1302, -0.0143, 0.9324, 272826, 0.0443, -0.3127, -0.1033, -0.0339, -0.0980, 0.1108, -0.1564, 174, 148
1.8750, -0.3575, -1.0547, 0.1390, -0.1302, -0.0143, 0.9324, 272826, 0.0443, -0.3127, -0.1034, -0.0338, -0.0979, 0.1109, -0.1564, 174, 148
1.8910, -0.0581, -1.4361, 0.2626, -0.1532, -0.0147, 0.9332, 272846, 0.0443, -0.3127, -0.1033, -0.0339, -0.0980, 0.1109, -0.1654, 180, 141
1.9220, 0.1425, 0.4448, -0.2392, -0.1682, -0.0141, 0.9339, 272886, 0.0443, -0.3127, -0.1034, -0.0339, -0.0979, 0.1109, -0.1831, 154, 170
1.9370, 0.1425, 0.4448, -0.2392, -0.1682, -0.0141, 0.9339, 272886, 0.0443, -0.3127, -0.1034, -0.0339, -0.0980, 0.1108, -0.1831, 154, 170
1.9530, 0.3266, 0.0527, -0.1658, -0.1653, -0.0143, 0.9339, 272906, 0.0443, -0.3126, -0.1033, -0.0338, -0.0981, 0.1108, -0.1918, 154, 170
1.9690, 0.3266, 0.0527, -0.1658, -0.1653, -0.0143, 0.9339, 272906, 0.0443, -0.3127, -0.1034, -0.0340, -0.0980, 0.1108, -0.1918, 154, 170
2.0000, 0.2475, -0.6539, 0.1207, -0.1712, -0.0134, 0.9343, 272926, 0.0443, -0.3127, -0.1033, -0.0338, -0.0981, 0.1109, -0.2003, 164, 160
2.0150, -0.0473, -0.5988, -0.1548, -0.2009, -0.0150, 0.9348, 272966, 0.0443, -0.3127, -0.1034, -0.0339, -0.0979, 0.1109, -0.2170, 170, 155
2.0310, -0.0473, -0.5988, -0.1548, -0.2009, -0.0150, 0.9348, 272966, 0.0443, -0.3127, -0.1034, -0.0338, -0.0981, 0.1108, -0.2170, 170, 155
2.0620, -0.1468, 0.0546, 0.0532, -0.2103, -0.0138, 0.9351, 273006, 0.0443, -0.3126, -0.1034, -0.0338, -0.0981, 0.1108, -0.2332, 153, 172
2.0780, -0.1790, -0.4908, 0.1992, -0.2131, -0.0145, 0.9360, 273026, 0.0443, -0.3127, -0.1034, -0.0339, -0.0981, 0.1109, -0.2411, 165, 161
2.0940, -0.1790, -0.4908, 0.1992, -0.2131, -0.0145, 0.9360, 273026, 0.0444, -0.3126, -0.1033, -0.0339, -0.0980, 0.1108, -0.2411, 165, 161
2.1090, -0.1470, -0.4005, -0.1785, -0.2388, -0.0140, 0.9364, 273066, 0.0443, -0.3127, -0.1034, -0.0339, -0.0980, 0.1109, -0.2564, 168, 159
2.1400, 0.1124, -0.2400, 0.0132, -0.2506, -0.0140, 0.9372, 273106, 0.0443, -0.3127, -0.1033, -0.0339, -0.0981, 0.1107, -0.2710, 166, 161
2.1560, 0.1124, -0.2400, 0.0132, -0.2506, -0.0140, 0.9372, 273106, 0.0443, -0.3127, -0.1033, -0.0338, -0.0981, 0.1108, -0.2710, 166, 161
2.1720, -0.4034, 0.2586, -0.3217, -0.2543, -0.0147, 0.9372, 273126, 0.0443, -0.3127, -0.1034, -0.0339, -0.0980, 0.1109, -0.2780, 161, 166
2.2030, 0.1263, -0.8985, 0.1758, -0.2763, -0.0113, 0.9376, 273166, 0.0443, -0.3126, -0.1033, -0.0338, -0.0982, 0.1107, -0.2916, 179, 149
2.2190, 0.1263, -0.8985, 0.1758, -0.2763, -0.0113, 0.9376, 273166, 0.0443, -0.3127, -0.1034, -0.0339, -0.0979, 0.1110, -0.2916, 179, 149
2.2340, -0.2634, -0.0906, -0.1685, -0.2848, -0.0126, 0.9378, 273186, 0.0443, -0.3127, -0.1034, -0.0339, -0.0981, 0.1107, -0.2981, 165, 164
2.2500, -0.2634, -0.0906, -0.1685, -0.2848, -0.0126, 0.9378, 273186, 0.0443, -0.3127, -0.1033, -0.0338, -0.0980, 0.1108, -0.2981, 165, 164
2.2810, 0.0067, -0.3569, 0.1675, -0.2916, -0.0119, 0.9385, 273226, 0.0443, -0.3127, -0.1034, -0.0338, -0.0981, 0.1109, -0.3106, 160, 170
2.2970, 0.0132, -0.3655, -0.1871, -0.3103, -0.0124, 0.9393, 273266, 0.0443, -0.3127, -0.1033, -0.0339, -0.0981, 0.1108, -0.3223, 168, 163
2.3120, 0.0132, -0.3655, -0.1871, -0.3103, -0.0124, 0.9393, 273266, 0.0443, -0.3127, -0.1034, -0.0339, -0.0979, 0.1109, -0.3223, 168, 163
2.3280, -0.0194, -0.5583, 0.1008, -0.3215, -0.0120, 0.9395, 273286, 0.0443, -0.3127, -0.1033, -0.0339, -0.0980, 0.1108, -0.3278, 170, 162
2.3590, -0.1734, 0.1201, -0.3190, -0.3300, -0.0119, 0.9404, 273326, 0.0443, -0.3127, -0.1034, -0.0339, -0.0980, 0.1109, -0.3383, 166, 167
2.3750, -0.1734, 0.1201, -0.3190, -0.3300, -0.0119, 0.9404, 273326, 0.0443, -0.3127, -0.1034, -0.0338, -0.0981, 0.1109, -0.3383, 166, 167
2.3900, 0.1244, 0.0070, -0.2475, -0.3309, -0.0122, 0.9402, 273346, 0.0443, -0.3127, -0.1034, -0.0339, -0.0980, 0.1108, -0.3432, 163, 169
2.4220, 0.0116, -0.1228, -0.2892, -0.3454, -0.0103, 0.9414, 273386, 0.0443, -0.3127, -0.1034, -0.0339, -0.0981, 0.1109, -0.3523, 168, 165
2.4370, 0.0116, -0.1228, -0.2892, -0.3454, -0.0103, 0.9414, 273386, 0.0443, -0.3127, -0.1033, -0.0338, -0.0982, 0.1108, -0.3523, 168, 165
2.4530, 0.0191, -0.4384, 0.0917, -0.3622, -0.0112, 0.9428, 273426, 0.0443, -0.3127, -0.1034, -0.0339, -0.0981, 0.1109, -0.3606, 177, 157
2.4680, 0.0191, -0.4384, 0.0917, -0.3622, -0.0112, 0.9428, 273426, 0.0443, -0.3127, -0.1033, -0.0338, -0.0981, 0.1108, -0.3606, 177, 157
2.5000, 0.0191, -0.4384, 0.0917, -0.3622, -0.0112, 0.9428, 273426, 0.0443, -0.3128, -0.1034, -0.0339, -0.0980, 0.1109, -0.3606, 177, 157
2.5150, 0.1231, 0.2363, -0.1852, -0.3670, -0.0119, 0.9430, 273466, 0.0444, -0.3127, -0.1034, -0.0339, -0.0981, 0.1108, -0.3680, 164, 171
2.5310, 0.1231, 0.2363, -0.1852, -0.3670, -0.0119, 0.9430, 273466, 0.0443, -0.3127, -0.1033, -0.0339, -0.0981, 0.1109, -0.3680, 164, 171
2.5620, 0.0398, -0.1949, 0.0422, -0.3697, -0.0124, 0.9446, 273506, 0.0443, -0.3128, -0.1034, -0.0339, -0.0980, 0.1109, -0.3744, 176, 159
2.5780, -0.0997, 0.0360, -0.2325, -0.3721, -0.0126, 0.9446, 273526, 0.0443, -0.3127, -0.1033, -0.0339, -0.0980, 0.1108, -0.3772, 166, 169
2.5930, -0.0997, 0.0360, -0.2325, -0.3721, -0.0126, 0.9446, 273526, 0.0443, -0.3128, -0.1034, -0.0339, -0.0979, 0.1109, -0.3772, 166, 169
2.6090, -0.0476, 0.0551, -0.1212, -0.3808, -0.0126, 0.9465, 273566, 0.0443, -0.3127, -0.1034, -0.0338, -0.0982, 0.1107, -0.3822, 178, 158
2.6400, -0.0196, 0.1027, -0.2570, -0.3834, -0.0138, 0.9460, 273586, 0.0443, -0.3127, -0.1034, -0.0338, -0.0979, 0.1109, -0.3844, 162, 173
2.6560, -0.0196, 0.1027, -0.2570, -0.3834, -0.0138, 0.9460, 273586, 0.0443, -0.3128, -0.1034, -0.0339, -0.0981, 0.1108, -0.3844, 162, 173
2.6720, -0.4822, 0.1094, -0.1406, -0.3885, -0.0138, 0.9468, 273626, 0.0444, -0.3127, -0.1033, -0.0339, -0.0981, 0.1109, -0.3879, 169, 167
2.7030, -0.1529, -0.1919, 0.0906, -0.3913, -0.0140, 0.9477, 273666, 0.0443, -0.3127, -0.1034, -0.0339, -0.0980, 0.1109, -0.3905, 172, 165
2.7180, -0.1529, -0.1919, 0.0906, -0.3913, -0.0140, 0.9477, 273666, 0.0443, -0.3127, -0.1033, -0.0339, -0.0981, 0.1107, -0.3905, 172, 165
2.7340, -0.2059, 0.0908, -0.0196, -0.3908, -0.0148, 0.9482, 273686, 0.0443, -0.3127, -0.1034, -0.0338, -0.0980, 0.1108, -0.3914, 166, 170
2.7500, -0.2059, 0.0908, -0.0196, -0.3908, -0.0148, 0.9482, 273686, 0.0443, -0.3127, -0.1034, -0.0339, -0.0980, 0.1108, -0.3914, 166, 170
2.7810, 0.0841, -0.3870, 0.1916, -0.3892, -0.0136, 0.9486, 273726, 0.0443, -0.3127, -0.1033, -0.0338, -0.0980, 0.1108, -0.3925, 172, 164
2.7970, -0.0417, 0.2481, -0.1637, -0.3878, -0.0136, 0.9493, 273746, 0.0443, -0.3127, -0.1034, -0.0339, -0.0979, 0.1110, -0.3927, 168, 168
2.8120, -0.0417, 0.2481, -0.1637, -0.3878, -0.0136, 0.9493, 273746, 0.0443, -0.3127, -0.1034, -0.0338, -0.0981, 0.1108, -0.3927, 168, 168
2.8430, 0.2244, -0.4967, 0.1414, -0.3873, -0.0138, 0.9493, 273786, 0.0443, -0.3127, -0.1034, -0.0338, -0.0979, 0.1108, -0.3923, 173, 163
2.8590, -0.0384, 0.1094, -0.0906, -0.3873, -0.0134, 0.9489, 273826, 0.0444, -0.3127, -0.1034, -0.0339, -0.0980, 0.1108, -0.3909, 162, 174
2.8750, -0.0384, 0.1094, -0.0906, -0.3873, -0.0134, 0.9489, 273826, 0.0444, -0.3127, -0.1034, -0.0339, -0.0980, 0.1108, -0.3909, 162, 174
2.8900, 0.1427, -0.1613, 0.1723, -0.3882, -0.0141, 0.9500, 273846, 0.0443, -0.3127, -0.1034, -0.0339, -0.0980, 0.1109, -0.3898, 175, 161
2.9220, 0.2685, -0.0470, 0.2371, -0.3857, -0.0141, 0.9489, 273886, 0.0443, -0.3127, -0.1034, -0.0340, -0.0981, 0.1109, -0.3870, 164, 172
2.9370, 0.2685, -0.0470, 0.2371, -0.3857, -0.0141, 0.9489, 273886, 0.0443, -0.3127, -0.1034, -0.0339, -0.0980, 0.1110, -0.3870, 164, 172
2.9530, -0.1368, -0.1255, 0.1086, -0.3871, -0.0134, 0.9495, 273906, 0.0443, -0.3127, -0.1034, -0.0339, -0.0980, 0.1107, -0.3852, 178, 158
2.9840, -0.1368, -0.1255, 0.1086, -0.3871, -0.0134, 0.9495, 273906, 0.0444, -0.3127, -0.1034, -0.0339, -0.0980, 0.1109, -0.3852, 178, 158
3.0000, 0.1629, 0.1333, 0.0892, -0.3824, -0.0134, 0.9486, 273946, 0.0443, -0.3127, -0.1033, -0.0339, -0.0980, 0.1108, -0.3808, 166, 170
3.0150, 0.0957, 0.3610, -0.0970, -0.3773, -0.0138, 0.9489, 273986, 0.0443, -0.3127, -0.1034, -0.0339, -0.0980, 0.1108, -0.3756, 161, 174
3.0310, 0.0957, 0.3610, -0.0970, -0.3773, -0.0138, 0.9489, 273986, 0.0443, -0.3127, -0.1033, -0.0339, -0.0981, 0.1108, -0.3756, 161, 174
3.0620, 0.0831, -0.0656, 0.1003, -0.3744, -0.0136, 0.9491, 274006, 0.0443, -0.3127, -0.1033, -0.0339, -0.0980, 0.1108, -0.3726, 162, 173
3.0780, 0.1040, 0.4217, -0.1653, -0.3684, -0.0136, 0.9496, 274046, 0.0444, -0.3127, -0.1034, -0.0340, -0.0980, 0.1109, -0.3658, 158, 176
3.0930, 0.1040, 0.4217, -0.1653, -0.3684, -0.0136, 0.9496, 274046, 0.0444, -0.3127, -0.1033, -0.0338, -0.0980, 0.1107, -0.3658, 158, 176
3.1090, 0.0616, -0.1395, 0.1118, -0.3658, -0.0129, 0.9496, 274066, 0.0443, -0.3128, -0.1034, -0.0339, -0.0980, 0.1109, -0.3621, 164, 170
3.1400, -0.0841, 0.3766, -0.2408, -0.3611, -0.0136, 0.9496, 274106, 0.0443, -0.3127, -0.1034, -0.0340, -0.0980, 0.1108, -0.3541, 162, 172
3.1560, -0.0841, 0.3766, -0.2408, -0.3611, -0.0136, 0.9496, 274106, 0.0443, -0.3127, -0.1033, -0.0339, -0.0980, 0.1109, -0.3541, 162, 172
3.1710, 0.1226, -0.3736, 0.2424, -0.3597, -0.0140, 0.9502, 274126, 0.0443, -0.3127, -0.1034, -0.0339, -0.0979, 0.1109, -0.3497, 171, 163
3.2030, -0.0258, 0.2282, 0.0075, -0.3580, -0.0141, 0.9507, 274146, 0.0443, -0.3127, -0.1033, -0.0338, -0.0982, 0.1107, -0.3451, 166, 168
3.2180, -0.0258, 0.2282, 0.0075, -0.3580, -0.0141, 0.9507, 274146, 0.0443, -0.3127, -0.1034, -0.0339, -0.0979, 0.1109, -0.3451, 166, 168
3.2340, 0.2852, -0.3720, 0.3193, -0.3534, -0.0136, 0.9500, 274186, 0.0443, -0.3127, -0.1034, -0.0339, -0.0982, 0.1108, -0.3352, 177, 156
3.2500, 0.2852, -0.3720, 0.3193, -0.3534, -0.0136, 0.9500, 274186, 0.0444, -0.3127, -0.1033, -0.0338, -0.0977, 0.1108, -0.3352, 177, 156
3.2810, 0.0099, 0.2013, -0.0903, -0.3477, -0.0148, 0.9498, 274226, 0.0443, -0.3127, -0.1034, -0.0339, -0.0980, 0.1108, -0.3245, 167, 166
3.2960, 0.3164, -0.2760, 0.2139, -0.3454, -0.0143, 0.9505, 274246, 0.0443, -0.3127, -0.1034, -0.0339, -0.0980, 0.1108, -0.3189, 176, 157
3.3120, 0.3164, -0.2760, 0.2139, -0.3454, -0.0143, 0.9505, 274246, 0.0443, -0.3127, -0.1034, -0.0339, -0.0979, 0.1109, -0.3189, 176, 157
3.3430, 0.1922, 0.3913, -0.0879, -0.3360, -0.0155, 0.9502, 274286, 0.0442, -0.3127, -0.1034, -0.0339, -0.0982, 0.1108, -0.3069, 167, 166
3.3590, 0.0258, 0.0177, 0.1185, -0.3293, -0.0152, 0.9509, 274306, 0.0443, -0.3127, -0.1034, -0.0339, -0.0980, 0.1110, -0.3007, 170, 162
3.3750, 0.0258, 0.0177, 0.1185, -0.3293, -0.0152, 0.9509, 274306, 0.0443, -0.3127, -0.1034, -0.0339, -0.0980, 0.1109, -0.3007, 170, 162
3.3900, 0.0930, 0.6327, -0.0400, -0.3145, -0.0155, 0.9510, 274346, 0.0443, -0.3127, -0.1034, -0.0339, -0.0982, 0.1108, -0.2876, 161, 170
3.4210, 0.0460, 0.7002, -0.0801, -0.2983, -0.0152, 0.9517, 274386, 0.0443, -0.3127, -0.1034, -0.0338, -0.0979, 0.1110, -0.2738, 163, 167
3.4370, 0.0460, 0.7002, -0.0801, -0.2983, -0.0152, 0.9517, 274386, 0.0443, -0.3127, -0.1034, -0.0338, -0.0982, 0.1108, -0.2738, 163, 167
3.4530, -0.1121, 0.3387, -0.0556, -0.2911, -0.0154, 0.9509, 274406, 0.0443, -0.3127, -0.1034, -0.0339, -0.0980, 0.1110, -0.2667, 161, 169
3.4840, -0.2126, 0.5980, -0.2540, -0.2817, -0.0155, 0.9512, 274446, 0.0444, -0.3127, -0.1033, -0.0339, -0.0978, 0.1109, -0.2518, 161, 168
3.4990, -0.2126, 0.5980, -0.2540, -0.2817, -0.0155, 0.9512, 274446, 0.0443, -0.3127, -0.1034, -0.0339, -0.0981, 0.1108, -0.2518, 161, 168
3.5150, 0.1132, 0.3725, -0.0411, -0.2747, -0.0168, 0.9505, 274466, 0.0443, -0.3126, -0.1034, -0.0338, -0.0980, 0.1109, -0.2442, 160, 169
3.5310, 0.1132, 0.3725, -0.0411, -0.2747, -0.0168, 0.9505, 274466, 0.0443, -0.3127, -0.1034, -0.0339, -0.0982, 0.1107, -0.2442, 160, 169
3.5620, 0.2682, -0.0793, 0.3241, -0.2700, -0.0162, 0.9512, 274486, 0.0443, -0.3127, -0.1034, -0.0339, -0.0980, 0.1109, -0.2364, 175, 153
3.5780, 0.0449, 0.2309, 0.0927, -0.2470, -0.0159, 0.9514, 274546, 0.0443, -0.3127, -0.1033, -0.0339, -0.0980, 0.1108, -0.2121, 170, 157
3.5930, 0.0449, 0.2309, 0.0927, -0.2470, -0.0159, 0.9514, 274546, 0.0443, -0.3127, -0.1034, -0.0340, -0.0980, 0.1109, -0.2121, 170, 157
3.6090, -0.0481, 0.5222, -0.1180, -0.2386, -0.0169, 0.9510, 274566, 0.0443, -0.3127, -0.1033, -0.0339, -0.0980, 0.1109, -0.2037, 163, 164
3.6400, -0.1118, 0.1341, 0.1414, -0.2225, -0.0159, 0.9510, 274606, 0.0443, -0.3127, -0.1034, -0.0339, -0.0981, 0.1108, -0.1866, 171, 155
3.6560, -0.1118, 0.1341, 0.1414, -0.2225, -0.0159, 0.9510, 274606, 0.0443, -0.3127, -0.1034, -0.0339, -0.0982, 0.1108, -0.1866, 171, 155
3.6710, -0.0900, 0.6440, -0.0312, -0.2145, -0.0168, 0.9512, 274626, 0.0443, -0.3127, -0.1034, -0.0338, -0.0981, 0.1108, -0.1778, 165, 161
3.7030, 0.1040, 0.1849, 0.2392, -0.1957, -0.0173, 0.9512, 274666, 0.0443, -0.3127, -0.1034, -0.0340, -0.0980, 0.1109, -0.1600, 169, 156
3.7180, 0.1040, 0.1849, 0.2392, -0.1957, -0.0173, 0.9512, 274666, 0.0443, -0.3126, -0.1033, -0.0338, -0.0981, 0.1108, -0.1600, 169, 156
3.7340, -0.1266, 0.4946, -0.1793, -0.1784, -0.0180, 0.9512, 274706, 0.0443, -0.3127, -0.1034, -0.0339, -0.0979, 0.1109, -0.1418, 162, 162
3.7490, -0.1266, 0.4946, -0.1793, -0.1784, -0.0180, 0.9512, 274706, 0.0443, -0.3127, -0.1034, -0.0340, -0.0980, 0.1109, -0.1418, 162, 162
3.7810, 0.1828, -0.0564, 0.2868, -0.1730, -0.0180, 0.9517, 274726, 0.0443, -0.3127, -0.1034, -0.0339, -0.0981, 0.1108, -0.1326, 175, 149
3.7960, -0.0650, 0.7795, -0.1489, -0.1548, -0.0185, 0.9509, 274766, 0.0443, -0.3127, -0.1034, -0.0339, -0.0979, 0.1109, -0.1138, 157, 167
3.8120, -0.0650, 0.7795, -0.1489, -0.1548, -0.0185, 0.9509, 274766, 0.0443, -0.3127, -0.1033, -0.0339, -0.0981, 0.1108, -0.1138, 157, 167
3.8430, 0.3596, 0.2696, 0.2873, -0.1433, -0.0171, 0.9514, 274786, 0.0443, -0.3127, -0.1034, -0.0339, -0.0979, 0.1110, -0.1043, 165, 159
3.8590, -0.4722, 0.6677, -0.0129, -0.1316, -0.0176, 0.9514, 274806, 0.0443, -0.3127, -0.1033, -0.0338, -0.0982, 0.1106, -0.0948, 164, 159
3.8740, -0.4722, 0.6677, -0.0129, -0.1316, -0.0176, 0.9514, 274806, 0.0443, -0.3127, -0.1034, -0.0339, -0.0981, 0.1109, -0.0948, 164, 159
3.8900, 0.3489, -0.0048, 0.1984, -0.1178, -0.0173, 0.9505, 274846, 0.0443, -0.3127, -0.1034, -0.0339, -0.0980, 0.1108, -0.0755, 168, 155
3.9210, -0.4185, 0.3086, -0.0414, -0.1115, -0.0173, 0.9507, 274866, 0.0443, -0.3127, -0.1033, -0.0339, -0.0982, 0.1107, -0.0658, 170, 152
3.9370, -0.4185, 0.3086, -0.0414, -0.1115, -0.0173, 0.9507, 274866, 0.0444, -0.3127, -0.1034, -0.0338, -0.0980, 0.1109, -0.0658, 170, 152
3.9530, 0.1003, 0.8886, -0.0710, -0.0850, -0.0171, 0.9503, 274906, 0.0443, -0.3127, -0.1033, -0.0339, -0.0981, 0.1107, -0.0463, 151, 171
3.9840, -0.0347, 0.5569, -0.0951, -0.0646, -0.0175, 0.9503, 274946, 0.0443, -0.3127, -0.1034, -0.0339, -0.0980, 0.1109, -0.0266, 166, 156
3.9990, -0.0347, 0.5569, -0.0951, -0.0646, -0.0175, 0.9503, 274946, 0.0443, -0.3127, -0.1034, -0.0339, -0.0980, 0.1109, -0.0266, 166, 156
4.0150, 0.0825, 0.3102, -0.0457, -0.0588, -0.0175, 0.9496, 274966, 0.0443, -0.3127, -0.1034, -0.0338, -0.0981, 0.1108, -0.0168, 167, 155
4.0310, 0.0825, 0.3102, -0.0457, -0.0588, -0.0175, 0.9496, 274966, 0.0444, -0.3127, -0.1033, -0.0338, -0.0978, 0.1109, -0.0168, 167, 155
4.0620, 0.0223, 0.8230, -0.1274, -0.0393, -0.0182, 0.9498, 275006, 0.0443, -0.3127, -0.1034, -0.0339, -0.0981, 0.1107, 0.0030, 163, 159
4.0770, -0.0927, 0.9136, -0.2551, -0.0262, -0.0182, 0.9491, 275026, 0.0444, -0.3127, -0.1034, -0.0339, -0.0980, 0.1109, 0.0128, 153, 168
4.0930, -0.0927, 0.9136, -0.2551, -0.0262, -0.0182, 0.9491, 275026, 0.0443, -0.3127, -0.1033, -0.0339, -0.0980, 0.1109, 0.0128, 153, 168
4.1240, -0.0306, 0.3005, -0.0032, -0.0113, -0.0180, 0.9496, 275066, 0.0443, -0.3127, -0.1034, -0.0339, -0.0980, 0.1108, 0.0325, 167, 154
4.1400, 0.2599, 0.5994, 0.1938, 0.0080, -0.0183, 0.9488, 275106, 0.0444, -0.3127, -0.1034, -0.0339, -0.0981, 0.1108, 0.0521, 161, 160
4.1560, 0.2599, 0.5994, 0.1938, 0.0080, -0.0183, 0.9488, 275106, 0.0443, -0.3127, -0.1034, -0.0339, -0.0980, 0.1109, 0.0521, 161, 160
4.1710, -0.3389, 0.5978, 0.1040, 0.0220, -0.0176, 0.9491, 275126, 0.0443, -0.3127, -0.1034, -0.0339, -0.0980, 0.1109, 0.0619, 164, 158
4.2020, 0.3395, 0.4306, -0.0024, 0.0412, -0.0171, 0.9491, 275166, 0.0443, -0.3127, -0.1034, -0.0338, -0.0980, 0.1109, 0.0813, 165, 157
4.2180, 0.3395, 0.4306, -0.0024, 0.0412, -0.0171, 0.9491, 275166, 0.0443, -0.3127, -0.1034, -0.0339, -0.0981, 0.1108, 0.0813, 165, 157
4.2340, -0.1266, 0.2618, 0.0874, 0.0487, -0.0169, 0.9495, 275186, 0.0443, -0.3127, -0.1034, -0.0339, -0.0980, 0.1108, 0.0910, 167, 154
4.2490, -0.1266, 0.2618, 0.0874, 0.0487, -0.0169, 0.9495, 275186, 0.0443, -0.3127, -0.1034, -0.0339, -0.0980, 0.1109, 0.0910, 167, 154
4.2810, 0.2158, 0.8448, -0.1529, 0.0705, -0.0166, 0.9491, 275226, 0.0443, -0.3127, -0.1034, -0.0340, -0.0980, 0.1108, 0.1100, 155, 166
4.2960, -0.1373, 0.4408, 0.0809, 0.0902, -0.0154, 0.9495, 275266, 0.0443, -0.3127, -0.1033, -0.0338, -0.0981, 0.1108, 0.1288, 167, 155
4.3120, -0.1373, 0.4408, 0.0809, 0.0902, -0.0154, 0.9495, 275266, 0.0443, -0.3127, -0.1034, -0.0339, -0.0979, 0.1109, 0.1288, 167, 155
4.3430, 0.0352, 0.6795, -0.1849, 0.0995, -0.0155, 0.9486, 275286, 0.0443, -0.3127, -0.1033, -0.0339, -0.0982, 0.1108, 0.1381, 159, 163
4.3590, 0.0441, 0.6703, 0.0640, 0.1234, -0.0147, 0.9495, 275326, 0.0443, -0.3127, -0.1034, -0.0338, -0.0980, 0.1109, 0.1564, 158, 165
4.3740, 0.0441, 0.6703, 0.0640, 0.1234, -0.0147, 0.9495, 275326, 0.0443, -0.3127, -0.1034, -0.0339, -0.0981, 0.1108, 0.1564, 158, 165
4.3900, -0.0994, 0.8542, -0.2596, 0.1351, -0.0148, 0.9488, 275346, 0.0443, -0.3127, -0.1033, -0.0339, -0.0981, 0.1109, 0.1654, 154, 169
4.4210, 0.0736, 0.3405, 0.0634, 0.1468, -0.0143, 0.9488, 275386, 0.0443, -0.3128, -0.1034, -0.0338, -0.0979, 0.1109, 0.1831, 165, 158
4.4370, 0.0736, 0.3405, 0.0634, 0.1468, -0.0143, 0.9488, 275386, 0.0443, -0.3127, -0.1033, -0.0339, -0.0981, 0.1107, 0.1831, 165, 158
4.4520, -0.0339, 0.5962, -0.0449, 0.1585, -0.0152, 0.9477, 275426, 0.0443, -0.3127, -0.1034, -0.0339, -0.0980, 0.1109, 0.2003, 162, 162
4.4840, 0.0132, 0.4032, 0.2266, 0.1707, -0.0136, 0.9486, 275446, 0.0443, -0.3127, -0.1034, -0.0339, -0.0981, 0.1108, 0.2088, 165, 159
4.4990, 0.0132, 0.4032, 0.2266, 0.1707, -0.0136, 0.9486, 275446, 0.0443, -0.3127, -0.1033, -0.0339, -0.0980, 0.1109, 0.2088, 165, 159
4.5150, 0.0132, 0.4032, 0.2266, 0.1707, -0.0136, 0.9486, 275446, 0.0443, -0.3127, -0.1034, -0.0339, -0.0980, 0.1108, 0.2088, 165, 159
4.5310, 0.3505, 0.5255, 0.0078, 0.1957, -0.0143, 0.9475, 275486, 0.0443, -0.3127, -0.1033, -0.0338, -0.0982, 0.1108, 0.2252, 161, 165
4.5620, 0.2551, -0.0032, 0.1425, 0.2009, -0.0127, 0.9479, 275506, 0.0443, -0.3127, -0.1034, -0.0339, -0.0980, 0.1108, 0.2332, 169, 156
4.5770, 0.2551, -0.0032, 0.1425, 0.2009, -0.0127, 0.9479, 275506, 0.0443, -0.3127, -0.1034, -0.0339, -0.0980, 0.1107, 0.2332, 169, 156
4.5930, 0.3306, 0.4854, -0.0798, 0.2161, -0.0133, 0.9472, 275546, 0.0443, -0.3127, -0.1034, -0.0339, -0.0980, 0.1109, 0.2488, 163, 163
4.6240, -0.2852, 0.5303, 0.0484, 0.2344, -0.0136, 0.9474, 275586, 0.0443, -0.3127, -0.1034, -0.0339, -0.0980, 0.1109, 0.2637, 161, 165
4.6400, -0.2852, 0.5303, 0.0484, 0.2344, -0.0136, 0.9474, 275586, 0.0443, -0.3127, -0.1033, -0.0338, -0.0982, 0.1107, 0.2637, 161, 165
4.6550, 0.1669, 0.7873, -0.1188, 0.2463, -0.0133, 0.9470, 275606, 0.0443, -0.3127, -0.1034, -0.0339, -0.0980, 0.1109, 0.2710, 154, 173
4.6710, 0.1669, 0.7873, -0.1188, 0.2463, -0.0133, 0.9470, 275606, 0.0443, -0.3127, -0.1034, -0.0339, -0.0981, 0.1108, 0.2710, 154, 173
4.7020, -0.1502, 0.0304, -0.0280, 0.2599, -0.0138, 0.9475, 275646, 0.0443, -0.3127, -0.1034, -0.0339, -0.0981, 0.1109, 0.2849, 173, 154
4.7180, 0.0938, 0.4182, -0.1790, 0.2669, -0.0147, 0.9472, 275666, 0.0443, -0.3127, -0.1034, -0.0338, -0.0981, 0.1109, 0.2916, 163, 165
4.7340, 0.0938, 0.4182, -0.1790, 0.2669, -0.0147, 0.9472, 275666, 0.0443, -0.3127, -0.1034, -0.0339, -0.0980, 0.1109, 0.2916, 163, 165
4.7650, 0.0712, 0.6800, 0.0110, 0.2808, -0.0143, 0.9482, 275706, 0.0443, -0.3127, -0.1034, -0.0340, -0.0980, 0.1109, 0.3045, 158, 171
4.7800, 0.1554, 0.0831, 0.2793, 0.2946, -0.0148, 0.9477, 275746, 0.0443, -0.3127, -0.1033, -0.0338, -0.0981, 0.1108, 0.3165, 165, 164
4.7960, 0.1554, 0.0831, 0.2793, 0.2946, -0.0148, 0.9477, 275746, 0.0443, -0.3127, -0.1034, -0.0339, -0.0980, 0.1108, 0.3165, 165, 164
4.8120, 0.0027, 0.2021, 0.0062, 0.2978, -0.0143, 0.9481, 275766, 0.0443, -0.3127, -0.1033, -0.0340, -0.0981, 0.1107, 0.3223, 172, 157
4.8430, 0.3634, -0.1763, 0.3083, 0.3037, -0.0140, 0.9474, 275806, 0.0443, -0.3127, -0.1034, -0.0339, -0.0980, 0.1109, 0.3331, 175, 155
4.8590, 0.3634, -0.1763, 0.3083, 0.3037, -0.0140, 0.9474, 275806, 0.0443, -0.3127, -0.1034, -0.0339, -0.0980, 0.1109, 0.3331, 175, 155
4.8740, -0.4532, 0.2064, -0.0710, 0.3079, -0.0141, 0.9475, 275826, 0.0443, -0.3127, -0.1033, -0.0338, -0.0980, 0.1109, 0.3383, 176, 153
4.8900, -0.4532, 0.2064, -0.0710, 0.3079, -0.0141, 0.9475, 275826, 0.0443, -0.3127, -0.1034, -0.0339, -0.0980, 0.1109, 0.3383, 176, 153
4.9210, 0.4362, 0.2513, 0.1521, 0.3225, -0.0133, 0.9477, 275866, 0.0443, -0.3127, -0.1033, -0.0339, -0.0980, 0.1108, 0.3479, 164, 167
4.9370, 0.3078, 0.4540, -0.0573, 0.3400, -0.0133, 0.9475, 275906, 0.0443, -0.3127, -0.1034, -0.0339, -0.0979, 0.1109, 0.3566, 162, 170
4.9520, 0.3078, 0.4540, -0.0573, 0.3400, -0.0133, 0.9475, 275906, 0.0443, -0.3127, -0.1034, -0.0340, -0.0981, 0.1107, 0.3566, 162, 170
4.9840, 0.1347, 0.0691, 0.0911, 0.3452, -0.0124, 0.9475, 275926, 0.0443, -0.3127, -0.1034, -0.0339, -0.0979, 0.1109, 0.3606, 169, 164
4.9990, 0.1078, 0.4674, -0.1666, 0.3548, -0.0124, 0.9477, 275966, 0.0443, -0.3127, -0.1034, -0.0338, -0.0981, 0.1108, 0.3680, 160, 173
5.0150, 0.1078, 0.4674, -0.1666, 0.3548, -0.0124, 0.9477, 275966, 0.0443, -0.3126, -0.1033, -0.0338, -0.0981, 0.1108, 0.3680, 160, 173
5.0300, -0.0581, 0.0841, 0.1330, 0.3616, -0.0127, 0.9475, 275986, 0.0443, -0.3127, -0.1034, -0.0339, -0.0979, 0.1109, 0.3713, 163, 171
5.0620, -0.0476, 0.3303, -0.2269, 0.3700, -0.0115, 0.9475, 276026, 0.0443, -0.3127, -0.1034, -0.0338, -0.0981, 0.1108, 0.3772, 163, 172
5.0770, -0.0476, 0.3303, -0.2269, 0.3700, -0.0115, 0.9475, 276026, 0.0443, -0.3127, -0.1033, -0.0339, -0.0979, 0.1109, 0.3772, 163, 172
5.0930, 0.1220, -0.2575, 0.0814, 0.3747, -0.0117, 0.9475, 276066, 0.0443, -0.3127, -0.1034, -0.0339, -0.0980, 0.1108, 0.3822, 176, 159
5.1240, -0.2782, 0.5639, -0.3155, 0.3775, -0.0127, 0.9468, 276086, 0.0443, -0.3126, -0.1033, -0.0339, -0.0982, 0.1108, 0.3844, 159, 176
5.1400, -0.2782, 0.5639, -0.3155, 0.3775, -0.0127, 0.9468, 276086, 0.0443, -0.3127, -0.1034, -0.0338, -0.0979, 0.1109, 0.3844, 159, 176
5.1550, -0.1599, 0.2188, -0.0347, 0.3850, -0.0119, 0.9474, 276126, 0.0443, -0.3127, -0.1033, -0.0339, -0.0982, 0.1108, 0.3879, 169, 167
5.1710, -0.1599, 0.2188, -0.0347, 0.3850, -0.0119, 0.9474, 276126, 0.0443, -0.3127, -0.1033, -0.0339, -0.0979, 0.1109, 0.3879, 169, 167
5.2020, -0.0911, 0.2419, -0.1884, 0.3890, -0.0140, 0.9468, 276146, 0.0443, -0.3127, -0.1034, -0.0339, -0.0981, 0.1107, 0.3893, 164, 173
5.2180, 0.3833, -0.0258, 0.1416, 0.3917, -0.0120, 0.9472, 276166, 0.0443, -0.3127, -0.1033, -0.0339, -0.0981, 0.1109, 0.3905, 168, 168
5.2330, 0.3833, -0.0258, 0.1416, 0.3917, -0.0120, 0.9472, 276166, 0.0443, -0.3127, -0.1034, -0.0339, -0.0980, 0.1109, 0.3905, 168, 168
5.2650, 0.1204, 0.4997, -0.0817, 0.3988, -0.0134, 0.9479, 276206, 0.0443, -0.3127, -0.1034, -0.0339, -0.0982, 0.1107, 0.3921, 164, 173
5.2800, 0.1416, 0.0097, 0.0747, 0.4018, -0.0127, 0.9481, 276226, 0.0443, -0.3127, -0.1034, -0.0338, -0.0979, 0.1110, 0.3925, 166, 171
5.2960, 0.1416, 0.0097, 0.0747, 0.4018, -0.0127, 0.9481, 276226, 0.0443, -0.3127, -0.1034, -0.0339, -0.0980, 0.1108, 0.3925, 166, 171
5.3120, 0.0258, 0.3696, -0.2156, 0.4046, -0.0129, 0.9486, 276266, 0.0443, -0.3127, -0.1034, -0.0339, -0.0981, 0.1108, 0.3926, 160, 177
5.3430, 0.1486, -0.2863, 0.1102, 0.4088, -0.0117, 0.9496, 276306, 0.0443, -0.3127, -0.1034, -0.0339, -0.0980, 0.1109, 0.3917, 171, 167
5.3580, 0.1486, -0.2863, 0.1102, 0.4088, -0.0117, 0.9496, 276306, 0.0443, -0.3127, -0.1034, -0.0339, -0.0980, 0.1109, 0.3917, 171, 167
5.3740, -0.1258, 0.2838, -0.2185, 0.4119, -0.0127, 0.9493, 276326, 0.0443, -0.3127, -0.1034, -0.0338, -0.0980, 0.1109, 0.3909, 158, 180
5.3900, -0.1258, 0.2838, -0.2185, 0.4119, -0.0127, 0.9493, 276326, 0.0443, -0.3126, -0.1033, -0.0338, -0.0981, 0.1107, 0.3909, 158, 180
5.4210, 0.2449, -0.3405, 0.1118, 0.4068, -0.0120, 0.9505, 276366, 0.0443, -0.3127, -0.1034, -0.0339, -0.0979, 0.1109, 0.3885, 174, 164
5.4370, -0.2578, 0.2943, -0.2594, 0.4030, -0.0122, 0.9502, 276386, 0.0443, -0.3126, -0.1033, -0.0339, -0.0982, 0.1107, 0.3870, 164, 174
5.4520, -0.2578, 0.2943, -0.2594, 0.4030, -0.0122, 0.9502, 276386, 0.0443, -0.3127, -0.1034, -0.0339, -0.0979, 0.1109, 0.3870, 164, 174
5.4830, -0.0675, -0.3040, 0.1360, 0.3965, -0.0108, 0.9507, 276426, 0.0443, -0.3127, -0.1034, -0.0339, -0.0981, 0.1108, 0.3831, 174, 163
5.4990, -0.5642, 0.3405, -0.1747, 0.3957, -0.0115, 0.9507, 276446, 0.0443, -0.3127, -0.1033, -0.0339, -0.0981, 0.1108, 0.3808, 158, 179
5.5150, -0.5642, 0.3405, -0.1747, 0.3957, -0.0115, 0.9507, 276446, 0.0443, -0.3127, -0.1034, -0.0340, -0.0980, 0.1108, 0.3808, 158, 179
5.5300, -0.3056, 0.0277, 0.0634, 0.3967, -0.0108, 0.9510, 276486, 0.0443, -0.3126, -0.1034, -0.0338, -0.0981, 0.1108, 0.3756, 167, 170
5.5620, 0.3510, -0.2220, 0.0384, 0.3960, -0.0093, 0.9507, 276526, 0.0443, -0.3127, -0.1034, -0.0339, -0.0980, 0.1110, 0.3693, 162, 175
5.5770, 0.3510, -0.2220, 0.0384, 0.3960, -0.0093, 0.9507, 276526, 0.0443, -0.3127, -0.1034, -0.0339, -0.0982, 0.1108, 0.3693, 162, 175
5.5930, -0.2529, -0.1720, 0.0414, 0.3941, -0.0098, 0.9509, 276546, 0.0443, -0.3126, -0.1034, -0.0338, -0.0980, 0.1109, 0.3658, 164, 173
5.6240, 0.0570, -0.2414, -0.0250, 0.3873, -0.0096, 0.9503, 276586, 0.0443, -0.3127, -0.1034, -0.0339, -0.0981, 0.1109, 0.3582, 165, 171
5.6400, 0.0570, -0.2414, -0.0250, 0.3873, -0.0096, 0.9503, 276586, 0.0443, -0.3127, -0.1034, -0.0339, -0.0982, 0.1108, 0.3582, 165, 171
5.6550, 0.1567, -0.3607, 0.1750, 0.3826, -0.0096, 0.9509, 276606, 0.0443, -0.3127, -0.1034, -0.0338, -0.0979, 0.1109, 0.3541, 168, 168
5.6710, 0.1567, -0.3607, 0.1750, 0.3826, -0.0096, 0.9509, 276606, 0.0442, -0.3127, -0.1033, -0.0339, -0.0982, 0.1106, 0.3541, 168, 168
5.7020, -0.1648, -0.2185, -0.0105, 0.3770, -0.0094, 0.9514, 276646, 0.0444, -0.3127, -0.1034, -0.0339, -0.0979, 0.1109, 0.3451, 160, 175
5.7180, -0.0457, -0.1890, -0.2102, 0.3660, -0.0093, 0.9523, 276686, 0.0443, -0.3127, -0.1034, -0.0338, -0.0980, 0.1109, 0.3352, 165, 169
5.7330, -0.0457, -0.1890, -0.2102, 0.3660, -0.0093, 0.9523, 276686, 0.0443, -0.3127, -0.1034, -0.0339, -0.0981, 0.1108, 0.3352, 165, 169
5.7650, -0.0005, -0.3747, -0.0309, 0.3597, -0.0098, 0.9521, 276706, 0.0443, -0.3126, -0.1033, -0.0338, -0.0980, 0.1109, 0.3300, 166, 168
5.7800, -0.3553, 0.3002, -0.3298, 0.3478, -0.0089, 0.9526, 276746, 0.0443, -0.3127, -0.1034, -0.0339, -0.0981, 0.1107, 0.3189, 153, 180
5.7960, -0.3553, 0.3002, -0.3298, 0.3478, -0.0089, 0.9526, 276746, 0.0443, -0.3127, -0.1033, -0.0338, -0.0979, 0.1109, 0.3189, 153, 180
5.8110, 0.1564, -0.4454, 0.0188, 0.3430, -0.0093, 0.9521, 276766, 0.0443, -0.3127, -0.1034, -0.0338, -0.0980, 0.1108, 0.3130, 161, 172
5.8430, -0.5489, 0.2457, -0.2881, 0.3293, -0.0099, 0.9526, 276806, 0.0443, -0.3127, -0.1034, -0.0339, -0.0981, 0.1108, 0.3007, 153, 178
5.8580, -0.5489, 0.2457, -0.2881, 0.3293, -0.0099, 0.9526, 276806, 0.0443, -0.3127, -0.1033, -0.0338, -0.0979, 0.1109, 0.3007, 153, 178
5.8740, -0.0422, -0.7346, 0.1693, 0.3149, -0.0075, 0.9531, 276846, 0.0443, -0.3127, -0.1034, -0.0338, -0.0981, 0.1107, 0.2876, 174, 157
5.9050, -0.0422, -0.7346, 0.1693, 0.3149, -0.0075, 0.9531, 276846, 0.0443, -0.3127, -0.1034, -0.0338, -0.0980, 0.1109, 0.2876, 174, 157
5.9210, -0.0422, -0.7346, 0.1693, 0.3149, -0.0075, 0.9531, 276846, 0.0443, -0.3127, -0.1033, -0.0339, -0.0980, 0.1108, 0.2876, 174, 157
5.9360, 0.4663, -0.5357, 0.0298, 0.3002, -0.0068, 0.9531, 276886, 0.0443, -0.3127, -0.1034, -0.0339, -0.0980, 0.1109, 0.2738, 163, 167
5.9520, 0.4663, -0.5357, 0.0298, 0.3002, -0.0068, 0.9531, 276886, 0.0443, -0.3127, -0.1034, -0.0339, -0.0980, 0.1109, 0.2738, 163, 167
5.9830, -0.2096, 0.1360, -0.0911, 0.2897, -0.0079, 0.9536, 276926, 0.0443, -0.3127, -0.1033, -0.0338, -0.0981, 0.1109, 0.2593, 154, 175
5.9990, 0.4486, -0.2454, -0.1064, 0.2841, -0.0077, 0.9535, 276946, 0.0443, -0.3127, -0.1034, -0.0339, -0.0980, 0.1107, 0.2518, 160, 169
6.0150, 0.4486, -0.2454, -0.1064, 0.2841, -0.0077, 0.9535, 276946, 0.0443, -0.3127, -0.1033, -0.0338, -0.0981, 0.1108, 0.2518, 160, 169
6.0300, -0.1330, 0.2639, -0.1287, 0.2698, -0.0089, 0.9540, 276986, 0.0443, -0.3128, -0.1034, -0.0339, -0.0979, 0.1108, 0.2364, 154, 174
6.0610, 0.0516, -0.4494, -0.0554, 0.2637, -0.0080, 0.9536, 277006, 0.0443, -0.3127, -0.1033, -0.0339, -0.0980, 0.1108, 0.2284, 160, 168
6.0770, 0.0516, -0.4494, -0.0554, 0.2637, -0.0080, 0.9536, 277006, 0.0443, -0.3127, -0.1034, -0.0339, -0.0980, 0.1109, 0.2284, 160, 168
6.0930, -0.0841, -0.0454, -0.1752, 0.2480, -0.0080, 0.9536, 277046, 0.0443, -0.3128, -0.1034, -0.0339, -0.0980, 0.1109, 0.2121, 157, 170
6.1240, 0.1478, -0.9509, 0.2701, 0.2267, -0.0087, 0.9543, 277086, 0.0443, -0.3127, -0.1033, -0.0338, -0.0980, 0.1108, 0.1952, 170, 157
6.1390, 0.1478, -0.9509, 0.2701, 0.2267, -0.0087, 0.9543, 277086, 0.0443, -0.3128, -0.1034, -0.0339, -0.0980, 0.1108, 0.1952, 170, 157
6.1550, 0.0250, -0.1427, -0.1666, 0.2166, -0.0086, 0.9545, 277106, 0.0443, -0.3127, -0.1034, -0.0339, -0.0981, 0.1108, 0.1866, 163, 163
6.1710, 0.0250, -0.1427, -0.1666, 0.2166, -0.0086, 0.9545, 277106, 0.0444, -0.3127, -0.1034, -0.0339, -0.0980, 0.1109, 0.1866, 163, 163
6.2020, 0.2349, -0.5561, 0.2787, 0.2019, -0.0077, 0.9547, 277146, 0.0443, -0.3127, -0.1034, -0.0339, -0.0980, 0.1108, 0.1690, 164, 161
6.2180, -0.1204, -0.0199, -0.2271, 0.1955, -0.0075, 0.9549, 277166, 0.0443, -0.3127, -0.1034, -0.0339, -0.0981, 0.1108, 0.1600, 153, 172
6.2330, -0.1204, -0.0199, -0.2271, 0.1955, -0.0075, 0.9549, 277166, 0.0443, -0.3127, -0.1034, -0.0338, -0.0978, 0.1108, 0.1600, 153, 172
6.2640, 0.3319, -0.9125, 0.2403, 0.1756, -0.0079, 0.9547, 277206, 0.0443, -0.3127, -0.1034, -0.0338, -0.0981, 0.1108, 0.1418, 170, 154
6.2800, 0.0917, -0.3825, 0.0449, 0.1515, -0.0089, 0.9547, 277246, 0.0444, -0.3127, -0.1034, -0.0339, -0.0979, 0.1109, 0.1232, 161, 162
6.2960, 0.0917, -0.3825, 0.0449, 0.1515, -0.0089, 0.9547, 277246, 0.0443, -0.3127, -0.1034, -0.0339, -0.0980, 0.1108, 0.1232, 161, 162
6.3110, 0.2811, -0.7464, 0.2822, 0.1424, -0.0073, 0.9554, 277266, 0.0443, -0.3127, -0.1034, -0.0339, -0.0980, 0.1108, 0.1138, 165, 158
6.3430, -0.1097, -0.7679, -0.1468, 0.1244, -0.0066, 0.9547, 277306, 0.0443, -0.3127, -0.1033, -0.0339, -0.0979, 0.1108, 0.0948, 157, 165
6.3580, -0.1097, -0.7679, -0.1468, 0.1244, -0.0066, 0.9547, 277306, 0.0442, -0.3127, -0.1034, -0.0338, -0.0982, 0.1109, 0.0948, 157, 165
6.3740, 0.3760, -1.1786, 0.2489, 0.1052, -0.0063, 0.9549, 277326, 0.0443, -0.3127, -0.1034, -0.0339, -0.0979, 0.1110, 0.0852, 176, 145
6.4050, 0.1782, -0.0535, 0.0602, 0.0915, -0.0070, 0.9550, 277366, 0.0443, -0.3127, -0.1033, -0.0339, -0.0982, 0.1108, 0.0658, 150, 172
6.4210, 0.1782, -0.0535, 0.0602, 0.0915, -0.0070, 0.9550, 277366, 0.0443, -0.3127, -0.1034, -0.0339, -0.0980, 0.1109, 0.0658, 150, 172
6.4360, 0.3301, 0.2161, -0.1798, 0.0958, -0.0066, 0.9552, 277386, 0.0443, -0.3127, -0.1033, -0.0339, -0.0980, 0.1108, 0.0561, 149, 172
6.4520, 0.3301, 0.2161, -0.1798, 0.0958, -0.0066, 0.9552, 277386, 0.0443, -0.3127, -0.1034, -0.0339, -0.0980, 0.1108, 0.0561, 149, 172
6.4830, -0.4905, -1.0956, 0.1648, 0.0733, -0.0061, 0.9554, 277426, 0.0443, -0.3127, -0.1034, -0.0339, -0.0980, 0.1109, 0.0365, 175, 146
6.4990, 0.2666, -0.3373, 0.0191, 0.0438, -0.0059, 0.9552, 277466, 0.0443, -0.3127, -0.1034, -0.0339, -0.0980, 0.1108, 0.0168, 160, 162
6.5140, 0.2666, -0.3373, 0.0191, 0.0438, -0.0059, 0.9552, 277466, 0.0443, -0.3127, -0.1034, -0.0339, -0.0980, 0.1109, 0.0168, 160, 162
6.5300, 0.3631, 0.0766, -0.2070, 0.0419, -0.0047, 0.9549, 277486, 0.0443, -0.3126, -0.1033, -0.0338, -0.0981, 0.1108, 0.0069, 151, 170
6.5610, -0.0443, -1.0781, 0.2419, 0.0220, -0.0061, 0.9549, 277526, 0.0443, -0.3127, -0.1034, -0.0339, -0.0982, 0.1109, -0.0128, 171, 150
6.5770, -0.0443, -1.0781, 0.2419, 0.0220, -0.0061, 0.9549, 277526, 0.0443, -0.3127, -0.1034, -0.0339, -0.0980, 0.1108, -0.0128, 171, 150
6.5930, 0.0390, -0.2949, -0.0745, 0.0066, -0.0063, 0.9547, 277546, 0.0443, -0.3127, -0.1033, -0.0338, -0.0981, 0.1108, -0.0227, 164, 157
6.6240, 0.0691, -0.1247, -0.1731, -0.0014, -0.0066, 0.9543, 277566, 0.0443, -0.3127, -0.1034, -0.0339, -0.0981, 0.1107, -0.0325, 156, 165
6.6390, 0.0691, -0.1247, -0.1731, -0.0014, -0.0066, 0.9543, 277566, 0.0443, -0.3126, -0.1033, -0.0338, -0.0981, 0.1108, -0.0325, 156, 165
6.6550, 0.1102, -0.7593, 0.3131, -0.0171, -0.0068, 0.9550, 277606, 0.0443, -0.3127, -0.1034, -0.0339, -0.0980, 0.1108, -0.0521, 164, 158
6.6710, 0.1102, -0.7593, 0.3131, -0.0171, -0.0068, 0.9550, 277606, 0.0443, -0.3126, -0.1033, -0.0339, -0.0982, 0.1107, -0.0521, 164, 158
6.7020, 0.0589, -0.5144, -0.1852, -0.0309, -0.0068, 0.9547, 277626, 0.0443, -0.3127, -0.1034, -0.0338, -0.0981, 0.1109, -0.0619, 162, 160
6.7170, -0.1344, -0.4456, 0.1895, -0.0649, -0.0066, 0.9543, 277686, 0.0443, -0.3127, -0.1034, -0.0339, -0.0980, 0.1107, -0.0910, 163, 159
6.7330, -0.1344, -0.4456, 0.1895, -0.0649, -0.0066, 0.9543, 277686, 0.0443, -0.3126, -0.1033, -0.0338, -0.0981, 0.1108, -0.0910, 163, 159
6.7640, -0.2580, -0.3911, -0.1309, -0.0721, -0.0072, 0.9542, 277706, 0.0443, -0.3127, -0.1034, -0.0339, -0.0980, 0.1109, -0.1005, 164, 158
6.7800, 0.1959, -0.8421, 0.0736, -0.0988, -0.0059, 0.9540, 277746, 0.0443, -0.3126, -0.1033, -0.0338, -0.0981, 0.1108, -0.1195, 171, 150
6.7960, 0.1959, -0.8421, 0.0736, -0.0988, -0.0059, 0.9540, 277746, 0.0444, -0.3127, -0.1034, -0.0338, -0.0979, 0.1109, -0.1195, 171, 150
6.8110, -0.4400, -0.4765, 0.1056, -0.1091, -0.0068, 0.9543, 277766, 0.0443, -0.3127, -0.1034, -0.0339, -0.0980, 0.1109, -0.1288, 164, 159
6.8420, 0.1075, 0.1922, -0.0266, -0.1117, -0.0068, 0.9547, 277786, 0.0443, -0.3126, -0.1033, -0.0338, -0.0982, 0.1108, -0.1381, 156, 166
6.8580, 0.1075, 0.1922, -0.0266, -0.1117, -0.0068, 0.9547, 277786, 0.0443, -0.3127, -0.1034, -0.0339, -0.0979, 0.1109, -0.1381, 156, 166
6.8740, -0.0841, -0.8330, 0.1247, -0.1278, -0.0063, 0.9543, 277826, 0.0443, -0.3126, -0.1033, -0.0339, -0.0982, 0.1108, -0.1564, 170, 153
6.9050, 0.0699, -0.1562, -0.2255, -0.1520, -0.0070, 0.9552, 277866, 0.0443, -0.3127, -0.1034, -0.0339, -0.0979, 0.1109, -0.1743, 159, 165
6.9210, 0.0699, -0.1562, -0.2255, -0.1520, -0.0070, 0.9552, 277866, 0.0443, -0.3127, -0.1034, -0.0339, -0.0981, 0.1107, -0.1743, 159, 165
6.9360, 0.0470, 0.1277, -0.2274, -0.1560, -0.0068, 0.9549, 277886, 0.0443, -0.3127, -0.1034, -0.0338, -0.0981, 0.1109, -0.1831, 151, 172
6.9520, 0.0470, 0.1277, -0.2274, -0.1560, -0.0068, 0.9549, 277886, 0.0443, -0.3127, -0.1034, -0.0339, -0.0980, 0.1109, -0.1831, 151, 172
6.9830, -0.0943, -0.7617, 0.0755, -0.1716, -0.0066, 0.9556, 277926, 0.0443, -0.3127, -0.1033, -0.0339, -0.0982, 0.1108, -0.2003, 172, 152
6.9990, -0.3844, -0.4639, -0.3325, -0.1852, -0.0070, 0.9545, 277946, 0.0443, -0.3127, -0.1034, -0.0339, -0.0980, 0.1109, -0.2088, 161, 164
7.0140, -0.3844, -0.4639, -0.3325, -0.1852, -0.0070, 0.9545, 277946, 0.0443, -0.3127, -0.1033, -0.0339, -0.0980, 0.1109, -0.2088, 161, 164
7.0460, 0.0320, -0.1153, 0.1148, -0.2084, -0.0072, 0.9549, 277986, 0.0443, -0.3127, -0.1034, -0.0339, -0.0980, 0.1109, -0.2252, 168, 158
7.0610, 0.4040, -0.1083, -0.0836, -0.2140, -0.0084, 0.9545, 278026, 0.0443, -0.3127, -0.1034, -0.0339, -0.0980, 0.1109, -0.2411, 157, 169
7.0770, 0.4040, -0.1083, -0.0836, -0.2140, -0.0084, 0.9545, 278026, 0.0443, -0.3127, -0.1034, -0.0339, -0.0981, 0.1108, -0.2411, 157, 169
7.0920, -0.1376, -0.4876, 0.1314, -0.2194, -0.0073, 0.9547, 278046, 0.0443, -0.3127, -0.1034, -0.0339, -0.0981, 0.1108, -0.2488, 164, 162
7.1240, -0.2822, -0.2290, -0.0933, -0.2365, -0.0091, 0.9550, 278086, 0.0444, -0.3126, -0.1033, -0.0339, -0.0979, 0.1109, -0.2637, 160, 166
7.1390, -0.2822, -0.2290, -0.0933, -0.2365, -0.0091, 0.9550, 278086, 0.0443, -0.3127, -0.1034, -0.0339, -0.0981, 0.1109, -0.2637, 160, 166
7.1550, 0.1497, -0.6120, -0.0054, -0.2482, -0.0086, 0.9549, 278106, 0.0443, -0.3127, -0.1033, -0.0338, -0.0981, 0.1108, -0.2710, 169, 159
7.1700, 0.1497, -0.6120, -0.0054, -0.2482, -0.0086, 0.9549, 278106, 0.0443, -0.3127, -0.1033, -0.0339, -0.0980, 0.1109, -0.2710, 169, 159
7.2020, 0.0613, -0.1933, -0.1752, -0.2695, -0.0079, 0.9550, 278146, 0.0443, -0.3127, -0.1034, -0.0339, -0.0980, 0.1109, -0.2849, 166, 162
7.2170, 0.0718, -0.5717, 0.3088, -0.2820, -0.0079, 0.9556, 278186, 0.0443, -0.3127, -0.1033, -0.0338, -0.0981, 0.1109, -0.2981, 170, 159
7.2330, 0.0718, -0.5717, 0.3088, -0.2820, -0.0079, 0.9556, 278186, 0.0443, -0.3128, -0.1034, -0.0339, -0.0980, 0.1108, -0.2981, 170, 159
7.2640, -0.0634, 0.0978, -0.0624, -0.2838, -0.0080, 0.9557, 278206, 0.0443, -0.3127, -0.1033, -0.0338, -0.0982, 0.1108, -0.3045, 157, 172
7.2800, 0.2215, -0.6671, 0.1586, -0.2902, -0.0077, 0.9550, 278246, 0.0443, -0.3127, -0.1034, -0.0338, -0.0979, 0.1108, -0.3165, 170, 159
7.2950, 0.2215, -0.6671, 0.1586, -0.2902, -0.0077, 0.9550, 278246, 0.0443, -0.3127, -0.1033, -0.0339, -0.0982, 0.1108, -0.3165, 170, 159
7.3110, -0.1693, -0.4300, -0.1406, -0.2988, -0.0075, 0.9559, 278266, 0.0443, -0.3127, -0.1033, -0.0339, -0.0980, 0.1109, -0.3223, 172, 158
7.3420, 0.3424, -0.7738, 0.1900, -0.3170, -0.0068, 0.9556, 278306, 0.0443, -0.3128, -0.1034, -0.0339, -0.0980, 0.1108, -0.3331, 172, 159
7.3580, 0.3424, -0.7738, 0.1900, -0.3170, -0.0068, 0.9556, 278306, 0.0443, -0.3127, -0.1033, -0.0339, -0.0981, 0.1108, -0.3331, 172, 159
7.3740, -0.0309, -0.1898, -0.1871, -0.3332, -0.0080, 0.9556, 278346, 0.0443, -0.3127, -0.1034, -0.0339, -0.0980, 0.1108, -0.3432, 167, 165
7.4050, 0.3510, -0.5239, 0.1287, -0.3384, -0.0073, 0.9557, 278366, 0.0443, -0.3127, -0.1034, -0.0339, -0.0980, 0.1107, -0.3479, 171, 161
7.4200, 0.3510, -0.5239, 0.1287, -0.3384, -0.0073, 0.9557, 278366, 0.0443, -0.3127, -0.1033, -0.0338, -0.0981, 0.1109, -0.3479, 171, 161
7.4360, 0.1021, 0.1242, -0.1511, -0.3447, -0.0084, 0.9559, 278406, 0.0443, -0.3128, -0.1034, -0.0339, -0.0980, 0.1109, -0.3566, 164, 169
7.4520, 0.1021, 0.1242, -0.1511, -0.3447, -0.0084, 0.9559, 278406, 0.0443, -0.3127, -0.1033, -0.0339, -0.0982, 0.1107, -0.3566, 164, 169
7.4830, 0.0529, 0.0237, -0.0145, -0.3452, -0.0079, 0.9559, 278426, 0.0443, -0.3127, -0.1034, -0.0339, -0.0980, 0.1109, -0.3606, 160, 173
7.4980, -0.0328, -0.3532, 0.1360, -0.3456, -0.0080, 0.9566, 278446, 0.0443, -0.3127, -0.1033, -0.0338, -0.0981, 0.1108, -0.3644, 165, 168
7.5140, -0.0328, -0.3532, 0.1360, -0.3456, -0.0080, 0.9566, 278446, 0.0443, -0.3127, -0.1034, -0.0339, -0.0980, 0.1109, -0.3644, 165, 168
7.5450, 0.0508, 0.2330, -0.2658, -0.3454, -0.0077, 0.9564, 278486, 0.0443, -0.3128, -0.1034, -0.0339, -0.0980, 0.1108, -0.3713, 155, 178
7.5610, 0.0562, -0.5228, 0.2575, -0.3492, -0.0084, 0.9568, 278506, 0.0443, -0.3127, -0.1033, -0.0339, -0.0981, 0.1109, -0.3744, 169, 164
7.5770, 0.0562, -0.5228, 0.2575, -0.3492, -0.0084, 0.9568, 278506, 0.0443, -0.3127, -0.1034, -0.0339, -0.0980, 0.1109, -0.3744, 169, 164
7.5920, -0.0976, 0.0632, -0.1126, -0.3552, -0.0087, 0.9568, 278546, 0.0443, -0.3127, -0.1033, -0.0339, -0.0980, 0.1108, -0.3799, 158, 175
7.6230, 0.1196, -0.5107, 0.2992, -0.3585, -0.0093, 0.9571, 278566, 0.0443, -0.3127, -0.1033, -0.0338, -0.0981, 0.1108, -0.3822, 168, 166
7.6390, 0.1196, -0.5107, 0.2992, -0.3585, -0.0093, 0.9571, 278566, 0.0443, -0.3127, -0.1034, -0.0339, -0.0979, 0.1107, -0.3822, 168, 166
7.6550, -0.1500, 0.0357, -0.2234, -0.3660, -0.0094, 0.9568, 278606, 0.0443, -0.3127, -0.1034, -0.0339, -0.0980, 0.1108, -0.3863, 158, 176
7.6700, -0.1500, 0.0357, -0.2234, -0.3660, -0.0094, 0.9568, 278606, 0.0443, -0.3127, -0.1034, -0.0339, -0.0980, 0.1109, -0.3863, 158, 176
7.7020, 0.2892, -0.1588, 0.1097, -0.3714, -0.0091, 0.9575, 278646, 0.0443, -0.3127, -0.1034, -0.0339, -0.0979, 0.1109, -0.3893, 166, 169
7.7170, -0.0715, 0.1328, -0.2411, -0.3723, -0.0105, 0.9570, 278666, 0.0443, -0.3127, -0.1034, -0.0339, -0.0980, 0.1109, -0.3905, 157, 178
7.7330, -0.0715, 0.1328, -0.2411, -0.3723, -0.0105, 0.9570, 278666, 0.0444, -0.3127, -0.1033, -0.0338, -0.0980, 0.1108, -0.3905, 157, 178
7.7640, -0.4225, 0.0933, 0.0027, -0.3756, -0.0106, 0.9580, 278706, 0.0443, -0.3127, -0.1034, -0.0339, -0.0980, 0.1109, -0.3921, 167, 169
7.7800, 0.4545, -0.0879, 0.1210, -0.3742, -0.0105, 0.9582, 278746, 0.0443, -0.3127, -0.1034, -0.0339, -0.0981, 0.1108, -0.3927, 162, 173
7.7950, 0.4545, -0.0879, 0.1210, -0.3742, -0.0105, 0.9582, 278746, 0.0443, -0.3127, -0.1034, -0.0339, -0.0979, 0.1109, -0.3927, 162, 173
7.8110, -0.4112, -0.1296, 0.0575, -0.3738, -0.0112, 0.9584, 278766, 0.0443, -0.3127, -0.1034, -0.0339, -0.0980, 0.1108, -0.3926, 165, 170
7.8420, 0.2056, -0.0621, -0.0347, -0.3728, -0.0106, 0.9578, 278806, 0.0443, -0.3126, -0.1033, -0.0338, -0.0981, 0.1108, -0.3917, 160, 175
7.8580, 0.2056, -0.0621, -0.0347, -0.3728, -0.0106, 0.9578, 278806, 0.0443, -0.3127, -0.1034, -0.0339, -0.0979, 0.1109, -0.3917, 160, 175
7.8730, -0.1817, -0.1640, 0.1473, -0.3735, -0.0110, 0.9582, 278826, 0.0443, -0.3127, -0.1034, -0.0339, -0.0983, 0.1108, -0.3909, 164, 171
7.9050, 0.0779, 0.2365, -0.0468, -0.3719, -0.0105, 0.9582, 278866, 0.0444, -0.3127, -0.1033, -0.0338, -0.0977, 0.1110, -0.3885, 156, 178
7.9200, 0.0779, 0.2365, -0.0468, -0.3719, -0.0105, 0.9582, 278866, 0.0443, -0.3127, -0.1034, -0.0339, -0.0981, 0.1108, -0.3885, 156, 178
7.9360, 0.0495, 0.0172, 0.1339, -0.3702, -0.0112, 0.9589, 278906, 0.0443, -0.3127, -0.1033, -0.0338, -0.0980, 0.1109, -0.3852, 163, 172
7.9520, 0.0495, 0.0172, 0.1339, -0.3702, -0.0112, 0.9589, 278906, 0.0443, -0.3127, -0.1034, -0.0339, -0.0980, 0.1108, -0.3852, 163, 172
7.9830, 0.0239, 0.2755, -0.1594, -0.3676, -0.0110, 0.9589, 278926, 0.0443, -0.3127, -0.1033, -0.0339, -0.0981, 0.1107, -0.3831, 157, 177
7.9980, 0.0040, 0.2524, -0.0664, -0.3663, -0.0113, 0.9594, 278966, 0.0443, -0.3127, -0.1034, -0.0339, -0.0979, 0.1110, -0.3783, 164, 171
8.0140, 0.0040, 0.2524, -0.0664, -0.3663, -0.0113, 0.9594, 278966, 0.0443, -0.3127, -0.1034, -0.0338, -0.0982, 0.1107, -0.3783, 164, 171
8.0450, -0.0809, 0.3276, -0.2798, -0.3648, -0.0117, 0.9591, 278986, 0.0444, -0.3127, -0.1033, -0.0338, -0.0980, 0.1108, -0.3756, 158, 176
8.0610, -0.0874, 0.0777, 0.0245, -0.3623, -0.0119, 0.9596, 279026, 0.0443, -0.3127, -0.1034, -0.0339, -0.0981, 0.1108, -0.3693, 169, 165
8.0770, -0.0874, 0.0777, 0.0245, -0.3623, -0.0119, 0.9596, 279026, 0.0443, -0.3127, -0.1034, -0.0340, -0.0981, 0.1107, -0.3693, 169, 165
8.0920, -0.1408, 0.4365, -0.2392, -0.3609, -0.0119, 0.9591, 279046, 0.0444, -0.3127, -0.1033, -0.0338, -0.0979, 0.1109, -0.3658, 157, 176
8.1230, -0.2720, 0.0449, 0.0962, -0.3592, -0.0113, 0.9599, 279086, 0.0443, -0.3127, -0.1034, -0.0339, -0.0981, 0.1107, -0.3582, 166, 168
8.1390, -0.2720, 0.0449, 0.0962, -0.3592, -0.0113, 0.9599, 279086, 0.0444, -0.3126, -0.1034, -0.0339, -0.0980, 0.1108, -0.3582, 166, 168
8.1550, 0.3591, 0.1021, 0.1296, -0.3498, -0.0103, 0.9592, 279126, 0.0443, -0.3127, -0.1033, -0.0338, -0.0980, 0.1108, -0.3497, 161, 173
8.1700, 0.3591, 0.1021, 0.1296, -0.3498, -0.0103, 0.9592, 279126, 0.0443, -0.3127, -0.1033, -0.0338, -0.0981, 0.1107, -0.3497, 161, 173
8.2010, 0.3591, 0.1021, 0.1296, -0.3498, -0.0103, 0.9592, 279126, 0.0443, -0.3127, -0.1034, -0.0339, -0.0979, 0.1110, -0.3497, 161, 173
8.2170, 0.0207, 0.4521, -0.1242, -0.3400, -0.0117, 0.9594, 279166, 0.0443, -0.3127, -0.1034, -0.0339, -0.0981, 0.1107, -0.3403, 158, 174
8.2330, 0.0207, 0.4521, -0.1242, -0.3400, -0.0117, 0.9594, 279166, 0.0443, -0.3126, -0.1034, -0.0339, -0.0980, 0.1109, -0.3403, 158, 174
8.2640, -0.2228, 0.0083, 0.0984, -0.3306, -0.0117, 0.9596, 279206, 0.0443, -0.3127, -0.1034, -0.0339, -0.0981, 0.1108, -0.3300, 166, 166
8.2800, -0.0734, 0.2247, -0.0392, -0.3274, -0.0127, 0.9598, 279226, 0.0443, -0.3127, -0.1034, -0.0339, -0.0980, 0.1109, -0.3245, 165, 167
8.2950, -0.0734, 0.2247, -0.0392, -0.3274, -0.0127, 0.9598, 279226, 0.0443, -0.3126, -0.1034, -0.0339, -0.0981, 0.1109, -0.3245, 165, 167
8.3110, -0.1293, -0.0583, 0.1726, -0.3224, -0.0122, 0.9598, 279266, 0.0444, -0.3127, -0.1033, -0.0339, -0.0979, 0.1108, -0.3130, 168, 164
8.3420, -0.0261, 0.3481, -0.1137, -0.3182, -0.0122, 0.9601, 279286, 0.0443, -0.3127, -0.1034, -0.0339, -0.0980, 0.1109, -0.3069, 166, 165
8.3580, -0.0261, 0.3481, -0.1137, -0.3182, -0.0122, 0.9601, 279286, 0.0443, -0.3126, -0.1033, -0.0338, -0.0981, 0.1107, -0.3069, 166, 165
8.3730, 0.0400, 0.1005, 0.2406, -0.3056, -0.0119, 0.9603, 279326, 0.0444, -0.3127, -0.1034, -0.0339, -0.0979, 0.1108, -0.2942, 166, 164
8.4050, -0.0175, 0.5679, -0.2723, -0.2916, -0.0117, 0.9601, 279366, 0.0443, -0.3127, -0.1033, -0.0339, -0.0982, 0.1108, -0.2808, 156, 173
8.4200, -0.0175, 0.5679, -0.2723, -0.2916, -0.0117, 0.9601, 279366, 0.0443, -0.3127, -0.1034, -0.0339, -0.0979, 0.1109, -0.2808, 156, 173
8.4360, 0.0782, -0.2303, 0.2486, -0.2864, -0.0119, 0.9601, 279386, 0.0443, -0.3127, -0.1034, -0.0338, -0.0981, 0.1109, -0.2738, 165, 164
8.4510, 0.0782, -0.2303, 0.2486, -0.2864, -0.0119, 0.9601, 279386, 0.0443, -0.3127, -0.1033, -0.0338, -0.0981, 0.1108, -0.2738, 165, 164
8.4830, -0.1804, 0.3395, -0.3045, -0.2803, -0.0120, 0.9598, 279426, 0.0443, -0.3127, -0.1034, -0.0339, -0.0980, 0.1109, -0.2593, 163, 166
8.4980, 0.3846, 0.0083, 0.2131, -0.2765, -0.0119, 0.9599, 279446, 0.0443, -0.3127, -0.1034, -0.0338, -0.0982, 0.1108, -0.2518, 166, 162
8.5140, 0.3846, 0.0083, 0.2131, -0.2765, -0.0119, 0.9599, 279446, 0.0443, -0.3127, -0.1034, -0.0339, -0.0979, 0.1109, -0.2518, 166, 162
8.5450, -0.1709, 0.6013, -0.2583, -0.2655, -0.0134, 0.9601, 279486, 0.0443, -0.3127, -0.1034, -0.0338, -0.0981, 0.1109, -0.2364, 161, 168
8.5610, -0.4268, 0.2728, 0.0817, -0.2506, -0.0129, 0.9603, 279526, 0.0443, -0.3127, -0.1033, -0.0338, -0.0981, 0.1108, -0.2203, 168, 159
8.5760, -0.4268, 0.2728, 0.0817, -0.2506, -0.0129, 0.9603, 279526, 0.0443, -0.3127, -0.1034, -0.0339, -0.0979, 0.1110, -0.2203, 168, 159
8.5920, -0.0083, 0.5642, -0.0312, -0.2421, -0.0131, 0.9605, 279546, 0.0443, -0.3127, -0.1034, -0.0339, -0.0982, 0.1108, -0.2121, 161, 166
8.6230, -0.0763, 0.1529, 0.1645, -0.2231, -0.0124, 0.9601, 279586, 0.0444, -0.3127, -0.1034, -0.0339, -0.0979, 0.1110, -0.1952, 162, 165
8.6390, -0.0763, 0.1529, 0.1645, -0.2231, -0.0124, 0.9601, 279586, 0.0443, -0.3127, -0.1034, -0.0339, -0.0980, 0.1108, -0.1952, 162, 165
8.6540, -0.0145, 0.3706, -0.0946, -0.2150, -0.0126, 0.9605, 279606, 0.0443, -0.3127, -0.1034, -0.0338, -0.0981, 0.1108, -0.1866, 167, 159
8.6860, -0.0156, 0.0672, 0.2016, -0.2009, -0.0126, 0.9598, 279646, 0.0443, -0.3127, -0.1033, -0.0339, -0.0980, 0.1110, -0.1690, 165, 160
8.7010, -0.0156, 0.0672, 0.2016, -0.2009, -0.0126, 0.9598, 279646, 0.0443, -0.3127, -0.1034, -0.0339, -0.0980, 0.1108, -0.1690, 165, 160
8.7170, -0.0814, 0.7652, -0.2723, -0.1855, -0.0126, 0.9596, 279686, 0.0443, -0.3127, -0.1034, -0.0339, -0.0979, 0.1109, -0.1510, 156, 168
8.7330, -0.0814, 0.7652, -0.2723, -0.1855, -0.0126, 0.9596, 279686, 0.0443, -0.3127, -0.1033, -0.0339, -0.0980, 0.1109, -0.1510, 156, 168
8.7640, 0.0712, 0.1631, 0.2777, -0.1775, -0.0127, 0.9601, 279706, 0.0443, -0.3127, -0.1034, -0.0339, -0.0980, 0.1109, -0.1418, 169, 155
8.7790, -0.3919, 0.8268, -0.2844, -0.1593, -0.0127, 0.9599, 279746, 0.0443, -0.3127, -0.1034, -0.0339, -0.0980, 0.1109, -0.1232, 156, 168
8.7950, -0.3919, 0.8268, -0.2844, -0.1593, -0.0127, 0.9599, 279746, 0.0443, -0.3128, -0.1034, -0.0339, -0.0981, 0.1109, -0.1232, 156, 168
8.8110, 0.3685, 0.3895, 0.1422, -0.1487, -0.0127, 0.9594, 279766, 0.0443, -0.3127, -0.1034, -0.0339, -0.0980, 0.1108, -0.1138, 159, 164
8.8420, -0.4349, 0.5851, -0.2260, -0.1326, -0.0136, 0.9598, 279806, 0.0443, -0.3127, -0.1033, -0.0339, -0.0981, 0.1108, -0.0948, 158, 165
8.8580, -0.4349, 0.5851, -0.2260, -0.1326, -0.0136, 0.9598, 279806, 0.0443, -0.3127, -0.1034, -0.0339, -0.0980, 0.1109, -0.0948, 158, 165
8.8730, 0.2744, 0.5185, -0.0774, -0.1264, -0.0141, 0.9594, 279826, 0.0443, -0.3127, -0.1033, -0.0337, -0.0981, 0.1109, -0.0852, 163, 160
8.9040, -0.1277, 0.2403, 0.0820, -0.1189, -0.0134, 0.9594, 279846, 0.0443, -0.3128, -0.1034, -0.0339, -0.0980, 0.1109, -0.0755, 169, 154
8.9200, -0.1277, 0.2403, 0.0820, -0.1189, -0.0134, 0.9594, 279846, 0.0443, -0.3127, -0.1034, -0.0339, -0.0980, 0.1109, -0.0755, 169, 154
8.9360, 0.2242, 0.6534, -0.1578, -0.1023, -0.0136, 0.9587, 279886, 0.0444, -0.3127, -0.1033, -0.0339, -0.0980, 0.1109, -0.0561, 162, 161
8.9510, 0.2242, 0.6534, -0.1578, -0.1023, -0.0136, 0.9587, 279886, 0.0443, -0.3127, -0.1034, -0.0339, -0.0980, 0.1108, -0.0561, 162, 161
8.9830, 0.0075, 0.4303, 0.2161, -0.0782, -0.0141, 0.9592, 279926, 0.0443, -0.3127, -0.1034, -0.0339, -0.0981, 0.1108, -0.0365, 164, 158
8.9980, 0.0779, 0.7789, -0.2500, -0.0653, -0.0136, 0.9589, 279946, 0.0443, -0.3128, -0.1034, -0.0338, -0.0980, 0.1109, -0.0266, 157, 165
9.0140, 0.0779, 0.7789, -0.2500, -0.0653, -0.0136, 0.9589, 279946, 0.0443, -0.3127, -0.1034, -0.0339, -0.0981, 0.1108, -0.0266, 157, 165
9.0450, 0.0755, -0.0347, 0.2940, -0.0503, -0.0147, 0.9587, 279986, 0.0443, -0.3127, -0.1034, -0.0339, -0.0980, 0.1108, -0.0069, 173, 148
9.0610, -0.1320, 0.8066, -0.1739, -0.0419, -0.0150, 0.9587, 280006, 0.0443, -0.3128, -0.1034, -0.0339, -0.0979, 0.1109, 0.0030, 161, 161
9.0760, -0.1320, 0.8066, -0.1739, -0.0419, -0.0150, 0.9587, 280006, 0.0443, -0.3127, -0.1033, -0.0338, -0.0981, 0.1108, 0.0030, 161, 161
9.0920, 0.2637, 0.3478, 0.2492, -0.0194, -0.0148, 0.9587, 280046, 0.0443, -0.3127, -0.1034, -0.0339, -0.0980, 0.1109, 0.0227, 163, 158
9.1230, 0.0204, 0.4131, -0.0927, 0.0003, -0.0161, 0.9580, 280086, 0.0443, -0.3127, -0.1034, -0.0339, -0.0981, 0.1108, 0.0424, 162, 160
9.1390, 0.0204, 0.4131, -0.0927, 0.0003, -0.0161, 0.9580, 280086, 0.0443, -0.3127, -0.1034, -0.0339, -0.0980, 0.1108, 0.0424, 162, 160
9.1540, 0.2602, 0.4271, 0.0298, 0.0099, -0.0161, 0.9577, 280106, 0.0443, -0.3128, -0.1034, -0.0339, -0.0979, 0.1109, 0.0521, 161, 160
9.1860, -0.4021, 0.3981, 0.0774, 0.0197, -0.0171, 0.9575, 280126, 0.0443, -0.3127, -0.1033, -0.0338, -0.0981, 0.1109, 0.0619, 165, 157
9.2010, -0.4021, 0.3981, 0.0774, 0.0197, -0.0171, 0.9575, 280126, 0.0443, -0.3127, -0.1034, -0.0339, -0.0980, 0.1109, 0.0619, 165, 157
9.2170, 0.2656, 0.7214, -0.1715, 0.0440, -0.0178, 0.9564, 280166, 0.0444, -0.3127, -0.1034, -0.0339, -0.0980, 0.1108, 0.0813, 156, 166
9.2320, 0.2656, 0.7214, -0.1715, 0.0440, -0.0178, 0.9564, 280166, 0.0443, -0.3127, -0.1033, -0.0338, -0.0979, 0.1108, 0.0813, 156, 166
9.2640, 0.0425, 0.3236, 0.0521, 0.0600, -0.0180, 0.9566, 280206, 0.0443, -0.3127, -0.1034, -0.0339, -0.0979, 0.1108, 0.1005, 170, 151
9.2790, 0.0296, 0.4400, 0.1618, 0.0791, -0.0185, 0.9556, 280246, 0.0443, -0.3127, -0.1034, -0.0338, -0.0981, 0.1108, 0.1195, 159, 163
9.2950, 0.0296, 0.4400, 0.1618, 0.0791, -0.0185, 0.9556, 280246, 0.0444, -0.3127, -0.1034, -0.0338, -0.0978, 0.1109, 0.1195, 159, 163
9.3260, 0.1185, 0.5265, 0.0884, 0.0892, -0.0182, 0.9556, 280266, 0.0443, -0.3127, -0.1033, -0.0339, -0.0982, 0.1106, 0.1288, 166, 156
9.3420, 0.0188, 0.4674, 0.2137, 0.1093, -0.0188, 0.9545, 280306, 0.0443, -0.3127, -0.1035, -0.0340, -0.0980, 0.1109, 0.1473, 163, 160
9.3570, 0.0188, 0.4674, 0.2137, 0.1093, -0.0188, 0.9545, 280306, 0.0443, -0.3127, -0.1033, -0.0338, -0.0980, 0.1108, 0.1473, 163, 160
9.3730, 0.1054, 0.1422, 0.2634, 0.1159, -0.0192, 0.9552, 280326, 0.0443, -0.3127, -0.1034, -0.0338, -0.0982, 0.1109, 0.1564, 170, 153
9.4040, 0.1419, 0.5163, 0.0607, 0.1374, -0.0202, 0.9536, 280366, 0.0443, -0.3127, -0.1034, -0.0339, -0.0980, 0.1108, 0.1743, 158, 165
9.4200, 0.1419, 0.5163, 0.0607, 0.1374, -0.0202, 0.9536, 280366, 0.0443, -0.3127, -0.1033, -0.0339, -0.0981, 0.1108, 0.1743, 158, 165
9.4360, -0.4462, 0.6808, -0.1696, 0.1541, -0.0201, 0.9538, 280406, 0.0443, -0.3127, -0.1034, -0.0339, -0.0981, 0.1109, 0.1918, 163, 160
9.4510, -0.4462, 0.6808, -0.1696, 0.1541, -0.0201, 0.9538, 280406, 0.0443, -0.3126, -0.1033, -0.0338, -0.0981, 0.1108, 0.1918, 163, 160
9.4820, 0.3516, 0.6295, -0.0925, 0.1620, -0.0199, 0.9535, 280426, 0.0443, -0.3127, -0.1034, -0.0339, -0.0981, 0.1109, 0.2003, 160, 164
9.4980, -0.2806, 0.5018, 0.0685, 0.1819, -0.0194, 0.9540, 280466, 0.0443, -0.3126, -0.1034, -0.0339, -0.0980, 0.1109, 0.2170, 164, 160
9.5140, -0.2806, 0.5018, 0.0685, 0.1819, -0.0194, 0.9540, 280466, 0.0443, -0.3127, -0.1033, -0.0339, -0.0980, 0.1108, 0.2170, 164, 160
9.5450, 0.3045, 0.8784, -0.1433, 0.1943, -0.0187, 0.9538, 280486, 0.0443, -0.3127, -0.1034, -0.0339, -0.0981, 0.1109, 0.2252, 156, 169
9.5610, 0.0032, 0.4075, 0.0344, 0.2047, -0.0183, 0.9533, 280506, 0.0442, -0.3126, -0.1033, -0.0338, -0.0981, 0.1109, 0.2332, 160, 165
9.5760, 0.0032, 0.4075, 0.0344, 0.2047, -0.0183, 0.9533, 280506, 0.0443, -0.3127, -0.1034, -0.0339, -0.0980, 0.1108, 0.2332, 160, 165
9.5920, 0.0908, 0.7717, -0.1551, 0.2218, -0.0182, 0.9529, 280546, 0.0443, -0.3127, -0.1033, -0.0339, -0.0982, 0.1108, 0.2488, 155, 170
9.6230, -0.0411, 0.4639, -0.0710, 0.2307, -0.0180, 0.9526, 280566, 0.0443, -0.3127, -0.1034, -0.0338, -0.0979, 0.1109, 0.2564, 158, 168
9.6390, -0.0411, 0.4639, -0.0710, 0.2307, -0.0180, 0.9526, 280566, 0.0443, -0.3127, -0.1034, -0.0339, -0.0982, 0.1106, 0.2564, 158, 168
9.6540, 0.1212, 0.4865, -0.1019, 0.2466, -0.0180, 0.9523, 280606, 0.0443, -0.3126, -0.1033, -0.0337, -0.0980, 0.1109, 0.2710, 165, 162
9.6850, 0.0898, -0.1478, 0.3134, 0.2634, -0.0188, 0.9519, 280646, 0.0443, -0.3127, -0.1034, -0.0339, -0.0980, 0.1109, 0.2849, 169, 159
9.7010, 0.0898, -0.1478, 0.3134, 0.2634, -0.0188, 0.9519, 280646, 0.0443, -0.3127, -0.1033, -0.0338, -0.0981, 0.1109, 0.2849, 169, 159
9.7170, 0.1072, 0.4292, 0.0081, 0.2695, -0.0185, 0.9521, 280666, 0.0444, -0.3127, -0.1033, -0.0338, -0.0977, 0.1109, 0.2916, 167, 161
9.7320, 0.1072, 0.4292, 0.0081, 0.2695, -0.0185, 0.9521, 280666, 0.0443, -0.3127, -0.1034, -0.0339, -0.0981, 0.1108, 0.2916, 167, 161
9.7640, 0.1860, 0.3075, 0.0712, 0.2855, -0.0190, 0.9509, 280706, 0.0443, -0.3126, -0.1033, -0.0338, -0.0980, 0.1109, 0.3045, 164, 165
9.7790, 0.0392, 0.1540, -0.0645, 0.2934, -0.0178, 0.9514, 280726, 0.0443, -0.3127, -0.1034, -0.0339, -0.0979, 0.1109, 0.3106, 170, 159
9.7950, 0.0392, 0.1540, -0.0645, 0.2934, -0.0178, 0.9514, 280726, 0.0443, -0.3126, -0.1033, -0.0338, -0.0982, 0.1108, 0.3106, 170, 159
9.8260, 0.0215, 0.0828, -0.0422, 0.3058, -0.0182, 0.9503, 280766, 0.0443, -0.3127, -0.1034, -0.0339, -0.0979, 0.1110, 0.3223, 168, 162
9.8420, -0.2196, 0.4343, -0.2664, 0.3100, -0.0175, 0.9509, 280806, 0.0443, -0.3127, -0.1033, -0.0339, -0.0981, 0.1106, 0.3331, 162, 169
9.8570, -0.2196, 0.4343, -0.2664, 0.3100, -0.0175, 0.9509, 280806, 0.0443, -0.3127, -0.1034, -0.0339, -0.0979, 0.1109, 0.3331, 162, 169
9.8730, 0.2344, 0.1731, 0.0564, 0.3133, -0.0171, 0.9510, 280826, 0.0443, -0.3127, -0.1034, -0.0339, -0.0980, 0.1109, 0.3383, 169, 162
9.9040, -0.0164, 0.4690, -0.0505, 0.3236, -0.0171, 0.9510, 280866, 0.0443, -0.3127, -0.1034, -0.0339, -0.0980, 0.1109, 0.3479, 164, 168
9.9200, -0.0164, 0.4690, -0.0505, 0.3236, -0.0171, 0.9510, 280866, 0.0443, -0.3127, -0.1034, -0.0339, -0.0980, 0.1109, 0.3479, 164, 168
9.9350, 0.2118, 0.4018, -0.0739, 0.3316, -0.0161, 0.9507, 280886, 0.0443, -0.3127, -0.1033, -0.0338, -0.0980, 0.1109, 0.3523, 162, 171
9.9510, 0.2118, 0.4018, -0.0739, 0.3316, -0.0161, 0.9507, 280886, 0.0443, -0.3127, -0.1034, -0.0338, -0.0980, 0.1109, 0.3523, 162, 171
9.9820, 0.0417, 0.6953, -0.0414, 0.3510, -0.0162, 0.9510, 280926, 0.0443, -0.3127, -0.1034, -0.0339, -0.0980, 0.1108, 0.3606, 156, 177
9.9980, -0.0632, -0.1083, 0.1828, 0.3665, -0.0166, 0.9502, 280966, 0.0443, -0.3127, -0.1033, -0.0338, -0.0981, 0.1109, 0.3680, 166, 169
10.0140, -0.0632, -0.1083, 0.1828, 0.3665, -0.0166, 0.9502, 280966, 0.0443, -0.3127, -0.1034, -0.0339, -0.0980, 0.1108, 0.3680, 166, 169
10.0450, 0.0390, 0.1750, 0.0788, 0.3695, -0.0164, 0.9507, 280986, 0.0443, -0.3127, -0.1033, -0.0339, -0.0980, 0.1109, 0.3713, 169, 166
10.0600, 0.1287, -0.0263, 0.1798, 0.3787, -0.0173, 0.9500, 281026, 0.0443, -0.3127, -0.1034, -0.0339, -0.0980, 0.1108, 0.3772, 161, 174
10.0760, 0.1287, -0.0263, 0.1798, 0.3787, -0.0173, 0.9500, 281026, 0.0443, -0.3127, -0.1033, -0.0339, -0.0980, 0.1108, 0.3772, 161, 174
10.0920, 0.0806, -0.0554, 0.0073, 0.3824, -0.0162, 0.9509, 281046, 0.0443, -0.3127, -0.1034, -0.0339, -0.0979, 0.1109, 0.3799, 168, 168
10.1230, 0.3317, 0.0062, 0.0718, 0.3922, -0.0175, 0.9495, 281086, 0.0443, -0.3127, -0.1034, -0.0338, -0.0982, 0.1108, 0.3844, 162, 175
10.1380, 0.3317, 0.0062, 0.0718, 0.3922, -0.0175, 0.9495, 281086, 0.0443, -0.3127, -0.1034, -0.0339, -0.0980, 0.1109, 0.3844, 162, 175
10.1540, -0.5397, 0.4921, -0.2174, 0.3962, -0.0185, 0.9491, 281126, 0.0443, -0.3127, -0.1034, -0.0339, -0.0980, 0.1107, 0.3879, 160, 176
10.1850, 0.3233, 0.0621, 0.0556, 0.3981, -0.0188, 0.9486, 281146, 0.0443, -0.3127, -0.1033, -0.0339, -0.0981, 0.1108, 0.3893, 163, 174
10.2010, 0.3233, 0.0621, 0.0556, 0.3981, -0.0188, 0.9486, 281146, 0.0443, -0.3127, -0.1034, -0.0339, -0.0980, 0.1109, 0.3893, 163, 174
10.2170, -0.2045, 0.1860, -0.0726, 0.4068, -0.0187, 0.9486, 281186, 0.0443, -0.3127, -0.1034, -0.0339, -0.0981, 0.1109, 0.3914, 163, 175
10.2320, -0.2045, 0.1860, -0.0726, 0.4068, -0.0187, 0.9486, 281186, 0.0443, -0.3127, -0.1033, -0.0339, -0.0980, 0.1109, 0.3914, 163, 175
10.2630, 0.2591, 0.4128, -0.1177, 0.4114, -0.0183, 0.9486, 281206, 0.0443, -0.3127, -0.1034, -0.0339, -0.0981, 0.1108, 0.3921, 156, 182
10.2790, 0.2591, 0.4128, -0.1177, 0.4114, -0.0183, 0.9486, 281206, 0.0443, -0.3127, -0.1033, -0.0338, -0.0981, 0.1108, 0.3921, 156, 182
10.2950, -0.1269, -0.1054, 0.0715, 0.4129, -0.0188, 0.9489, 281246, 0.0443, -0.3127, -0.1034, -0.0338, -0.0979, 0.1109, 0.3927, 168, 170
10.3260, -0.1298, 0.0406, 0.0925, 0.4164, -0.0175, 0.9486, 281286, 0.0443, -0.3127, -0.1033, -0.0338, -0.0982, 0.1108, 0.3923, 155, 183
10.3420, -0.1298, 0.0406, 0.0925, 0.4164, -0.0175, 0.9486, 281286, 0.0443, -0.3127, -0.1034, -0.0339, -0.0979, 0.1109, 0.3923, 155, 183
10.3570, 0.1559, -0.1621, 0.2666, 0.4180, -0.0166, 0.9495, 281306, 0.0443, -0.3128, -0.1034, -0.0339, -0.0981, 0.1107, 0.3917, 167, 172
10.3730, 0.1559, -0.1621, 0.2666, 0.4180, -0.0166, 0.9495, 281306, 0.0443, -0.3127, -0.1034, -0.0339, -0.0981, 0.1109, 0.3917, 167, 172
10.4040, -0.1707, 0.1949, -0.2078, 0.4206, -0.0161, 0.9489, 281346, 0.0443, -0.3127, -0.1034, -0.0339, -0.0979, 0.1109, 0.3898, 157, 181
10.4200, 0.2102, -0.5131, 0.1723, 0.4192, -0.0155, 0.9493, 281366, 0.0443, -0.3127, -0.1034, -0.0338, -0.0981, 0.1108, 0.3885, 170, 169
10.4350, 0.2102, -0.5131, 0.1723, 0.4192, -0.0155, 0.9493, 281366, 0.0443, -0.3127, -0.1033, -0.0339, -0.0981, 0.1107, 0.3885, 170, 169
10.4670, 0.0145, 0.3016, -0.1637, 0.4194, -0.0152, 0.9489, 281406, 0.0443, -0.3127, -0.1034, -0.0340, -0.0981, 0.1108, 0.3852, 150, 187
10.4820, -0.3448, 0.1239, -0.1223, 0.4201, -0.0147, 0.9505, 281446, 0.0443, -0.3127, -0.1033, -0.0339, -0.0980, 0.1109, 0.3808, 156, 182
10.4980, -0.3448, 0.1239, -0.1223, 0.4201, -0.0147, 0.9505, 281446, 0.0444, -0.3127, -0.1034, -0.0339, -0.0979, 0.1109, 0.3808, 156, 182
10.5130, -0.0804, 0.1847, -0.1064, 0.4201, -0.0150, 0.9496, 281466, 0.0443, -0.3127, -0.1034, -0.0338, -0.0981, 0.1108, 0.3783, 149, 188
10.5450, 0.1782, -0.5577, 0.1941, 0.4119, -0.0138, 0.9507, 281506, 0.0444, -0.3127, -0.1034, -0.0339, -0.0981, 0.1109, 0.3726, 169, 169
10.5600, 0.1782, -0.5577, 0.1941, 0.4119, -0.0138, 0.9507, 281506, 0.0443, -0.3127, -0.1033, -0.0339, -0.0980, 0.1107, 0.3726, 169, 169
10.5760, -0.3486, -0.0941, -0.1986, 0.4093, -0.0150, 0.9500, 281526, 0.0443, -0.3127, -0.1034, -0.0339, -0.0980, 0.1109, 0.3693, 153, 184
10.5920, -0.3486, -0.0941, -0.1986, 0.4093, -0.0150, 0.9500, 281526, 0.0443, -0.3127, -0.1034, -0.0338, -0.0980, 0.1109, 0.3693, 153, 184
10.6230, -0.1618, -0.1003, -0.0986, 0.3990, -0.0131, 0.9509, 281566, 0.0443, -0.3127, -0.1034, -0.0339, -0.0981, 0.1108, 0.3621, 168, 169
10.6380, 0.3303, -0.4701, 0.2145, 0.3890, -0.0126, 0.9509, 281606, 0.0443, -0.3127, -0.1034, -0.0338, -0.0981, 0.1109, 0.3541, 167, 169
10.6540, 0.3303, -0.4701, 0.2145, 0.3890, -0.0126, 0.9509, 281606, 0.0442, -0.3127, -0.1034, -0.0338, -0.0980, 0.1109, 0.3541, 167, 169
10.6850, -0.3924, -0.1949, -0.0218, 0.3859, -0.0126, 0.9510, 281626, 0.0443, -0.3127, -0.1034, -0.0339, -0.0981, 0.1109, 0.3497, 166, 170
10.7010, 0.3736, -0.4491, 0.1113, 0.3801, -0.0126, 0.9507, 281666, 0.0443, -0.3127, -0.1034, -0.0339, -0.0980, 0.1108, 0.3403, 161, 175
10.7160, 0.3736, -0.4491, 0.1113, 0.3801, -0.0126, 0.9507, 281666, 0.0443, -0.3127, -0.1034, -0.0339, -0.0980, 0.1109, 0.3403, 161, 175
10.7320, -0.3634, -0.2510, 0.0446, 0.3766, -0.0120, 0.9509, 281686, 0.0443, -0.3127, -0.1034, -0.0338, -0.0981, 0.1108, 0.3352, 163, 172
10.7630, 0.4252, -0.5553, -0.0245, 0.3663, -0.0113, 0.9512, 281726, 0.0443, -0.3126, -0.1033, -0.0338, -0.0982, 0.1108, 0.3245, 166, 168
10.7790, 0.4252, -0.5553, -0.0245, 0.3663, -0.0113, 0.9512, 281726, 0.0443, -0.3127, -0.1034, -0.0339, -0.0980, 0.1108, 0.3245, 166, 168
10.7950, 0.0828, 0.1196, -0.1110, 0.3552, -0.0124, 0.9526, 281766, 0.0443, -0.3127, -0.1033, -0.0338, -0.0982, 0.1107, 0.3130, 160, 174
10.8260, 0.3991, -0.4365, -0.1188, 0.3494, -0.0110, 0.9524, 281786, 0.0443, -0.3127, -0.1034, -0.0339, -0.0979, 0.1109, 0.3069, 157, 176
10.8410, 0.3991, -0.4365, -0.1188, 0.3494, -0.0110, 0.9524, 281786, 0.0442, -0.3127, -0.1033, -0.0338, -0.0983, 0.1107, 0.3069, 157, 176
10.8570, 0.0685, -0.4760, 0.1613, 0.3388, -0.0110, 0.9531, 281826, 0.0443, -0.3127, -0.1033, -0.0339, -0.0980, 0.1109, 0.2942, 163, 169
10.8730, 0.0685, -0.4760, 0.1613, 0.3388, -0.0110, 0.9531, 281826, 0.0443, -0.3127, -0.1034, -0.0339, -0.0980, 0.1109, 0.2942, 163, 169
10.9040, 0.0008, -0.1134, -0.1126, 0.3327, -0.0105, 0.9533, 281846, 0.0443, -0.3126, -0.1033, -0.0338, -0.0982, 0.1109, 0.2876, 154, 177
10.9200, 0.1121, -0.5859, 0.0317, 0.3159, -0.0101, 0.9543, 281886, 0.0443, -0.3127, -0.1033, -0.0339, -0.0980, 0.1109, 0.2738, 169, 163
10.9350, 0.1121, -0.5859, 0.0317, 0.3159, -0.0101, 0.9543, 281886, 0.0442, -0.3127, -0.1033, -0.0339, -0.0982, 0.1107, 0.2738, 169, 163
10.9660, -0.1508, -0.1142, -0.2575, 0.3077, -0.0108, 0.9542, 281906, 0.0443, -0.3126, -0.1033, -0.0338, -0.0982, 0.1109, 0.2667, 158, 173
10.9820, 0.0253, -0.4838, 0.0126, 0.3011, -0.0108, 0.9542, 281926, 0.0443, -0.3127, -0.1033, -0.0338, -0.0981, 0.1108, 0.2593, 156, 174
10.9980, 0.0253, -0.4838, 0.0126, 0.3011, -0.0108, 0.9542, 281926, 0.0443, -0.3127, -0.1034, -0.0340, -0.0981, 0.1108, 0.2593, 156, 174
11.0130, -0.2164, -0.0693, -0.2688, 0.2852, -0.0105, 0.9556, 281966, 0.0444, -0.3127, -0.1033, -0.0338, -0.0979, 0.1109, 0.2442, 155, 174
11.0450, 0.3069, -0.8273, 0.2919, 0.2667, -0.0099, 0.9559, 282006, 0.0443, -0.3127, -0.1034, -0.0338, -0.0982, 0.1107, 0.2284, 167, 161
11.0600, 0.3069, -0.8273, 0.2919, 0.2667, -0.0099, 0.9559, 282006, 0.0443, -0.3126, -0.1033, -0.0338, -0.0981, 0.1109, 0.2284, 167, 161
11.0760, -0.4276, -0.2056, -0.3069, 0.2567, -0.0105, 0.9561, 282026, 0.0443, -0.3127, -0.1033, -0.0338, -0.0981, 0.1109, 0.2203, 167, 161
11.1070, 0.4800, -0.7182, 0.1973, 0.2402, -0.0094, 0.9570, 282066, 0.0443, -0.3127, -0.1034, -0.0339, -0.0981, 0.1109, 0.2037, 167, 160
11.1230, 0.4800, -0.7182, 0.1973, 0.2402, -0.0094, 0.9570, 282066, 0.0443, -0.3126, -0.1033, -0.0337, -0.0982, 0.1108, 0.2037, 167, 160
11.1380, -0.4002, -0.0943, -0.1623, 0.2334, -0.0091, 0.9578, 282086, 0.0443, -0.3127, -0.1034, -0.0339, -0.0979, 0.1108, 0.1952, 157, 169
11.1540, -0.4002, -0.0943, -0.1623, 0.2334, -0.0091, 0.9578, 282086, 0.0443, -0.3127, -0.1034, -0.0339, -0.0980, 0.1109, 0.1952, 157, 169
11.1850, 0.3682, -0.8157, 0.1266, 0.2173, -0.0079, 0.9582, 282126, 0.0443, -0.3127, -0.1034, -0.0338, -0.0981, 0.1108, 0.1778, 162, 164
11.2010, 0.1739, -0.2131, -0.0809, 0.2005, -0.0093, 0.9587, 282166, 0.0443, -0.3127, -0.1034, -0.0340, -0.0980, 0.1107, 0.1600, 160, 165
11.2160, 0.1739, -0.2131, -0.0809, 0.2005, -0.0093, 0.9587, 282166, 0.0443, -0.3127, -0.1034, -0.0339, -0.0980, 0.1109, 0.1600, 160, 165
11.2320, 0.1951, -0.6720, 0.0376, 0.1922, -0.0086, 0.9589, 282186, 0.0443, -0.3127, -0.1034, -0.0339, -0.0980, 0.1108, 0.1510, 164, 161
11.2630, -0.1371, -0.2516, -0.1097, 0.1742, -0.0098, 0.9591, 282226, 0.0443, -0.3127, -0.1034, -0.0339, -0.0980, 0.1109, 0.1326, 162, 162
11.2790, -0.1371, -0.2516, -0.1097, 0.1742, -0.0098, 0.9591, 282226, 0.0443, -0.3127, -0.1033, -0.0338, -0.0981, 0.1109, 0.1326, 162, 162
11.2940, 0.2658, -0.5341, -0.1059, 0.1653, -0.0091, 0.9589, 282246, 0.0443, -0.3127, -0.1034, -0.0339, -0.0979, 0.1107, 0.1232, 157, 167
11.3260, -0.0919, -0.2957, 0.0070, 0.1421, -0.0086, 0.9594, 282286, 0.0444, -0.3127, -0.1033, -0.0339, -0.0979, 0.1109, 0.1043, 163, 160
11.3410, -0.0919, -0.2957, 0.0070, 0.1421, -0.0086, 0.9594, 282286, 0.0444, -0.3127, -0.1034, -0.0339, -0.0980, 0.1107, 0.1043, 163, 160
11.3570, 0.0366, -0.6569, 0.1215, 0.1232, -0.0094, 0.9592, 282326, 0.0443, -0.3127, -0.1034, -0.0339, -0.0981, 0.1108, 0.0852, 159, 164
11.3730, 0.0366, -0.6569, 0.1215, 0.1232, -0.0094, 0.9592, 282326, 0.0444, -0.3127, -0.1033, -0.0338, -0.0979, 0.1109, 0.0852, 159, 164
11.4040, 0.0366, -0.6569, 0.1215, 0.1232, -0.0094, 0.9592, 282326, 0.0443, -0.3127, -0.1034, -0.0339, -0.0980, 0.1109, 0.0852, 159, 164
11.4190, -0.0715, -0.4943, -0.0387, 0.0976, -0.0093, 0.9594, 282386, 0.0443, -0.3127, -0.1033, -0.0339, -0.0981, 0.1108, 0.0561, 152, 170
11.4350, -0.0715, -0.4943, -0.0387, 0.0976, -0.0093, 0.9594, 282386, 0.0443, -0.3127, -0.1034, -0.0339, -0.0979, 0.1109, 0.0561, 152, 170
11.4660, 0.2341, -0.9786, 0.1852, 0.0836, -0.0089, 0.9606, 282406, 0.0444, -0.3127, -0.1034, -0.0339, -0.0981, 0.1107, 0.0463, 171, 150
11.4820, -0.1777, 0.0341, -0.2021, 0.0630, -0.0089, 0.9599, 282446, 0.0443, -0.3127, -0.1033, -0.0338, -0.0981, 0.1109, 0.0266, 150, 171
11.4980, -0.1777, 0.0341, -0.2021, 0.0630, -0.0089, 0.9599, 282446, 0.0443, -0.3127, -0.1034, -0.0339, -0.0979, 0.1108, 0.0266, 150, 171
11.5130, -0.2854, -0.3658, -0.0640, 0.0429, -0.0086, 0.9605, 282486, 0.0443, -0.3127, -0.1033, -0.0339, -0.0981, 0.1108, 0.0069, 165, 157
11.5440, -0.2817, -0.3661, -0.2209, 0.0344, -0.0096, 0.9599, 282506, 0.0443, -0.3127, -0.1034, -0.0339, -0.0980, 0.1109, -0.0030, 149, 172
11.5600, -0.2817, -0.3661, -0.2209, 0.0344, -0.0096, 0.9599, 282506, 0.0443, -0.3127, -0.1033, -0.0339, -0.0981, 0.1107, -0.0030, 149, 172
11.5760, -0.0212, -0.5308, -0.0500, 0.0136, -0.0091, 0.9606, 282546, 0.0443, -0.3127, -0.1034, -0.0339, -0.0980, 0.1109, -0.0227, 168, 153
11.6070, -0.0212, -0.5308, -0.0500, 0.0136, -0.0091, 0.9606, 282546, 0.0443, -0.3127, -0.1033, -0.0339, -0.0980, 0.1108, -0.0227, 168, 153
11.6220, -0.0691, -0.2330, -0.3427, 0.0019, -0.0101, 0.9601, 282566, 0.0443, -0.3127, -0.1034, -0.0339, -0.0981, 0.1108, -0.0325, 156, 166
11.6380, 0.2887, -0.5523, 0.2443, -0.0077, -0.0098, 0.9606, 282586, 0.0444, -0.3127, -0.1034, -0.0339, -0.0979, 0.1109, -0.0424, 162, 160
11.6540, 0.2887, -0.5523, 0.2443, -0.0077, -0.0098, 0.9606, 282586, 0.0443, -0.3127, -0.1033, -0.0338, -0.0981, 0.1108, -0.0424, 162, 160
11.6850, -0.3129, -0.1567, -0.2182, -0.0213, -0.0091, 0.9613, 282626, 0.0444, -0.3127, -0.1034, -0.0339, -0.0980, 0.1108, -0.0619, 153, 168
11.7010, 0.3457, -0.6066, 0.0425, -0.0288, -0.0089, 0.9613, 282646, 0.0443, -0.3127, -0.1033, -0.0339, -0.0980, 0.1109, -0.0716, 161, 161
11.7160, 0.3457, -0.6066, 0.0425, -0.0288, -0.0089, 0.9613, 282646, 0.0443, -0.3127, -0.1034, -0.0339, -0.0981, 0.1108, -0.0716, 161, 161
11.7320, -0.2139, -0.5588, -0.0543, -0.0532, -0.0096, 0.9615, 282686, 0.0444, -0.3127, -0.1034, -0.0339, -0.0979, 0.1109, -0.0910, 161, 161
11.7630, 0.2820, -0.8988, 0.1086, -0.0799, -0.0099, 0.9612, 282726, 0.0444, -0.3127, -0.1033, -0.0338, -0.0980, 0.1108, -0.1100, 170, 152
11.7790, 0.2820, -0.8988, 0.1086, -0.0799, -0.0099, 0.9612, 282726, 0.0443, -0.3127, -0.1034, -0.0339, -0.0980, 0.1108, -0.1100, 170, 152
11.7940, -0.1849, -0.7924, 0.1261, -0.0915, -0.0101, 0.9620, 282746, 0.0443, -0.3127, -0.1033, -0.0338, -0.0981, 0.1108, -0.1195, 168, 155
11.8260, -0.0516, -0.1605, -0.1134, -0.1061, -0.0093, 0.9620, 282786, 0.0443, -0.3128, -0.1034, -0.0339, -0.0980, 0.1108, -0.1381, 156, 167
11.8410, -0.0516, -0.1605, -0.1134, -0.1061, -0.0093, 0.9620, 282786, 0.0443, -0.3127, -0.1034, -0.0339, -0.0979, 0.1108, -0.1381, 156, 167
11.8570, 0.0892, -0.8585, 0.1610, -0.1162, -0.0093, 0.9624, 282806, 0.0443, -0.3127, -0.1033, -0.0339, -0.0981, 0.1108, -0.1473, 163, 159
11.8720, 0.0892, -0.8585, 0.1610, -0.1162, -0.0093, 0.9624, 282806, 0.0443, -0.3128, -0.1034, -0.0338, -0.0981, 0.1109, -0.1473, 163, 159
11.9040, -0.1271, -0.2669, -0.2457, -0.1353, -0.0089, 0.9620, 282846, 0.0443, -0.3127, -0.1033, -0.0339, -0.0981, 0.1109, -0.1654, 159, 164
11.9190, 0.0567, -0.6461, 0.2914, -0.1447, -0.0094, 0.9625, 282866, 0.0443, -0.3127, -0.1034, -0.0338, -0.0980, 0.1108, -0.1743, 166, 158
11.9350, 0.0567, -0.6461, 0.2914, -0.1447, -0.0094, 0.9625, 282866, 0.0443, -0.3127, -0.1034, -0.0339, -0.0981, 0.1109, -0.1743, 166, 158
11.9660, -0.2989, 0.0239, -0.3282, -0.1613, -0.0096, 0.9631, 282906, 0.0443, -0.3127, -0.1034, -0.0339, -0.0980, 0.1109, -0.1918, 155, 168
11.9820, 0.2540, -1.1410, 0.2019, -0.1826, -0.0082, 0.9636, 282946, 0.0443, -0.3127, -0.1034, -0.0339, -0.0980, 0.1107, -0.2088, 175, 148
11.9970, 0.2540, -1.1410, 0.2019, -0.1826, -0.0082, 0.9636, 282946, 0.0443, -0.3127, -0.1034, -0.0339, -0.0980, 0.1109, -0.2088, 175, 148
12.0130, -0.3940, -0.2166, -0.2330, -0.1955, -0.0080, 0.9632, 282966, 0.0443, -0.3127, -0.1034, -0.0339, -0.0980, 0.1109, -0.2170, 167, 158
12.0440, 0.0016, -0.3102, 0.1379, -0.2145, -0.0065, 0.9643, 283006, 0.0443, -0.3127, -0.1034, -0.0340, -0.0981, 0.1108, -0.2332, 163, 163
12.0600, 0.0016, -0.3102, 0.1379, -0.2145, -0.0065, 0.9643, 283006, 0.0443, -0.3127, -0.1034, -0.0339, -0.0979, 0.1109, -0.2332, 163, 163
12.0760, -0.2814, -0.1876, 0.0667, -0.2196, -0.0077, 0.9645, 283026, 0.0443, -0.3127, -0.1034, -0.0339, -0.0981, 0.1108, -0.2411, 161, 165
12.1070, 0.1564, -0.1938, -0.0430, -0.2225, -0.0075, 0.9643, 283066, 0.0443, -0.3126, -0.1034, -0.0338, -0.0981, 0.1109, -0.2564, 157, 169
12.1220, 0.1564, -0.1938, -0.0430, -0.2225, -0.0075, 0.9643, 283066, 0.0443, -0.3127, -0.1034, -0.0339, -0.0980, 0.1109, -0.2564, 157, 169
12.1380, -0.0556, -0.4134, -0.1497, -0.2375, -0.0080, 0.9652, 283106, 0.0443, -0.3127, -0.1033, -0.0339, -0.0981, 0.1107, -0.2710, 168, 158
12.1540, -0.0556, -0.4134, -0.1497, -0.2375, -0.0080, 0.9652, 283106, 0.0443, -0.3127, -0.1034, -0.0339, -0.0980, 0.1110, -0.2710, 168, 158
12.1850, 0.0688, -0.2699, -0.2169, -0.2468, -0.0077, 0.9650, 283126, 0.0443, -0.3127, -0.1034, -0.0338, -0.0981, 0.1108, -0.2780, 159, 168
12.2000, 0.1411, -0.5112, 0.1062, -0.2628, -0.0077, 0.9657, 283166, 0.0443, -0.3127, -0.1033, -0.0338, -0.0981, 0.1108, -0.2916, 169, 159
12.2160, 0.1411, -0.5112, 0.1062, -0.2628, -0.0077, 0.9657, 283166, 0.0443, -0.3127, -0.1034, -0.0339, -0.0980, 0.1109, -0.2916, 169, 159
12.2320, -0.0492, 0.0129, -0.2473, -0.2697, -0.0080, 0.9657, 283186, 0.0443, -0.3127, -0.1033, -0.0339, -0.0982, 0.1108, -0.2981, 156, 172
12.2630, 0.1943, -0.6789, 0.2857, -0.2815, -0.0082, 0.9662, 283226, 0.0444, -0.3127, -0.1034, -0.0339, -0.0979, 0.1109, -0.3106, 170, 159
12.2790, 0.1943, -0.6789, 0.2857, -0.2815, -0.0082, 0.9662, 283226, 0.0443, -0.3127, -0.1033, -0.0339, -0.0981, 0.1108, -0.3106, 170, 159
12.2940, 0.1124, -0.3010, -0.0779, -0.2913, -0.0094, 0.9664, 283266, 0.0443, -0.3127, -0.1034, -0.0339, -0.0980, 0.1109, -0.3223, 159, 170
12.3250, 0.1124, -0.3010, -0.0779, -0.2913, -0.0094, 0.9664, 283266, 0.0443, -0.3127, -0.1033, -0.0339, -0.0979, 0.1109, -0.3223, 159, 170
12.3410, 0.1124, -0.3010, -0.0779, -0.2913, -0.0094, 0.9664, 283266, 0.0443, -0.3127, -0.1034, -0.0338, -0.0981, 0.1109, -0.3223, 159, 170
12.3570, -0.0828, -0.1892, -0.1986, -0.3136, -0.0098, 0.9676, 283326, 0.0443, -0.3127, -0.1034, -0.0339, -0.0980, 0.1109, -0.3383, 162, 169
12.3720, -0.0828, -0.1892, -0.1986, -0.3136, -0.0098, 0.9676, 283326, 0.0443, -0.3126, -0.1033, -0.0338, -0.0981, 0.1108, -0.3383, 162, 169
12.4040, 0.3161, -0.4604, 0.1287, -0.3197, -0.0082, 0.9676, 283346, 0.0443, -0.3127, -0.1034, -0.0339, -0.0981, 0.1109, -0.3432, 168, 163
12.4190, -0.3991, -0.3188, 0.1175, -0.3241, -0.0101, 0.9683, 283366, 0.0443, -0.3126, -0.1033, -0.0338, -0.0981, 0.1108, -0.3479, 166, 165
12.4350, -0.3991, -0.3188, 0.1175, -0.3241, -0.0101, 0.9683, 283366, 0.0443, -0.3127, -0.1033, -0.0339, -0.0981, 0.1109, -0.3479, 166, 165
12.4660, 0.0231, 0.0476, -0.0855, -0.3295, -0.0096, 0.9683, 283406, 0.0443, -0.3127, -0.1034, -0.0339, -0.0981, 0.1109, -0.3566, 158, 174
12.4820, -0.0102, -0.3174, 0.1941, -0.3311, -0.0099, 0.9688, 283426, 0.0443, -0.3127, -0.1033, -0.0338, -0.0981, 0.1109, -0.3606, 159, 173
12.4970, -0.0102, -0.3174, 0.1941, -0.3311, -0.0099, 0.9688, 283426, 0.0443, -0.3127, -0.1034, -0.0338, -0.0980, 0.1109, -0.3606, 159, 173
12.5130, -0.0094, -0.0747, -0.2575, -0.3393, -0.0106, 0.9697, 283466, 0.0443, -0.3126, -0.1033, -0.0338, -0.0982, 0.1108, -0.3680, 159, 173
12.5440, -0.0685, -0.3516, 0.2059, -0.3498, -0.0113, 0.9706, 283506, 0.0443, -0.3127, -0.1034, -0.0339, -0.0980, 0.1110, -0.3744, 171, 163
12.5600, -0.0685, -0.3516, 0.2059, -0.3498, -0.0113, 0.9706, 283506, 0.0443, -0.3127, -0.1033, -0.0338, -0.0981, 0.1108, -0.3744, 171, 163
12.5750, 0.0121, -0.1881, -0.2231, -0.3543, -0.0112, 0.9699, 283526, 0.0444, -0.3126, -0.1033, -0.0338, -0.0978, 0.1109, -0.3772, 164, 169
12.6070, 0.1148, -0.6263, 0.3360, -0.3632, -0.0113, 0.9701, 283566, 0.0443, -0.3127, -0.1034, -0.0339, -0.0981, 0.1108, -0.3822, 172, 162
12.6220, 0.1148, -0.6263, 0.3360, -0.3632, -0.0113, 0.9701, 283566, 0.0443, -0.3126, -0.1033, -0.0339, -0.0981, 0.1108, -0.3822, 172, 162
12.6380, -0.0280, 0.1551, -0.2166, -0.3662, -0.0117, 0.9704, 283586, 0.0443, -0.3127, -0.1034, -0.0339, -0.0979, 0.1109, -0.3844, 163, 172
12.6540, -0.0280, 0.1551, -0.2166, -0.3662, -0.0117, 0.9704, 283586, 0.0443, -0.3127, -0.1034, -0.0340, -0.0981, 0.1108, -0.3844, 163, 172
12.6850, 0.3228, -0.1949, 0.1583, -0.3660, -0.0119, 0.9708, 283626, 0.0444, -0.3126, -0.1033, -0.0338, -0.0979, 0.1109, -0.3879, 165, 170
12.7000, 0.2204, 0.0610, -0.1124, -0.3625, -0.0133, 0.9708, 283666, 0.0443, -0.3127, -0.1034, -0.0339, -0.0980, 0.1109, -0.3905, 157, 176
12.7160, 0.2204, 0.0610, -0.1124, -0.3625, -0.0133, 0.9708, 283666, 0.0444, -0.3127, -0.1034, -0.0339, -0.0981, 0.1108, -0.3905, 157, 176
12.7470, 0.1578, -0.1718, 0.0481, -0.3627, -0.0129, 0.9708, 283686, 0.0443, -0.3127, -0.1034, -0.0339, -0.0979, 0.1110, -0.3914, 161, 174
12.7630, -0.0769, -0.0317, 0.0054, -0.3679, -0.0129, 0.9713, 283726, 0.0443, -0.3127, -0.1033, -0.0339, -0.0982, 0.1106, -0.3925, 161, 173
12.7780, -0.0769, -0.0317, 0.0054, -0.3679, -0.0129, 0.9713, 283726, 0.0443, -0.3127, -0.1034, -0.0339, -0.0979, 0.1109, -0.3925, 161, 173
12.7940, 0.1989, -0.0589, -0.1607, -0.3705, -0.0124, 0.9708, 283746, 0.0443, -0.3127, -0.1034, -0.0338, -0.0981, 0.1108, -0.3927, 161, 173
12.8250, 0.0564, 0.0516, 0.0551, -0.3742, -0.0129, 0.9720, 283786, 0.0444, -0.3127, -0.1033, -0.0339, -0.0980, 0.1108, -0.3923, 162, 173
12.8410, 0.0564, 0.0516, 0.0551, -0.3742, -0.0129, 0.9720, 283786, 0.0443, -0.3127, -0.1034, -0.0339, -0.0979, 0.1108, -0.3923, 162, 173
12.8570, 0.0016, -0.0650, 0.1726, -0.3716, -0.0124, 0.9720, 283826, 0.0443, -0.3127, -0.1034, -0.0338, -0.0981, 0.1108, -0.3909, 159, 176
12.8720, 0.0016, -0.0650, 0.1726, -0.3716, -0.0124, 0.9720, 283826, 0.0443, -0.3127, -0.1034, -0.0339, -0.0980, 0.1109, -0.3909, 159, 176
12.9030, 0.0798, -0.2478, 0.0779, -0.3728, -0.0127, 0.9728, 283846, 0.0443, -0.3127, -0.1034, -0.0338, -0.0980, 0.1108, -0.3898, 168, 168
12.9190, 0.0812, 0.1271, 0.0355, -0.3709, -0.0124, 0.9723, 283886, 0.0444, -0.3127, -0.1034, -0.0339, -0.0980, 0.1109, -0.3870, 157, 177
12.9350, 0.0812, 0.1271, 0.0355, -0.3709, -0.0124, 0.9723, 283886, 0.0443, -0.3127, -0.1034, -0.0339, -0.0980, 0.1109, -0.3870, 157, 177
12.9660, 0.0812, 0.1271, 0.0355, -0.3709, -0.0124, 0.9723, 283886, 0.0443, -0.3127, -0.1033, -0.0338, -0.0980, 0.1109, -0.3870, 157, 177
12.9820, 0.1005, 0.1465, 0.0054, -0.3693, -0.0138, 0.9728, 283946, 0.0443, -0.3127, -0.1034, -0.0339, -0.0980, 0.1108, -0.3808, 161, 173
12.9970, 0.1005, 0.1465, 0.0054, -0.3693, -0.0138, 0.9728, 283946, 0.0443, -0.3127, -0.1033, -0.0338, -0.0979, 0.1108, -0.3808, 161, 173
13.0130, -0.4475, 0.1769, -0.0519, -0.3679, -0.0131, 0.9739, 283986, 0.0444, -0.3127, -0.1034, -0.0339, -0.0980, 0.1109, -0.3756, 165, 170
13.0440, 0.2572, 0.2763, -0.1244, -0.3644, -0.0141, 0.9739, 284006, 0.0444, -0.3127, -0.1033, -0.0338, -0.0979, 0.1107, -0.3726, 160, 175
13.0600, 0.2572, 0.2763, -0.1244, -0.3644, -0.0141, 0.9739, 284006, 0.0443, -0.3127, -0.1034, -0.0339, -0.0979, 0.1108, -0.3726, 160, 175
13.0750, -0.2774, -0.0917, 0.1771, -0.3595, -0.0155, 0.9744, 284046, 0.0443, -0.3127, -0.1034, -0.0339, -0.0981, 0.1109, -0.3658, 167, 167
13.1070, 0.0247, 0.3018, -0.0591, -0.3559, -0.0161, 0.9748, 284066, 0.0443, -0.3127, -0.1033, -0.0338, -0.0981, 0.1108, -0.3621, 159, 174
13.1220, 0.0247, 0.3018, -0.0591, -0.3559, -0.0161, 0.9748, 284066, 0.0443, -0.3127, -0.1034, -0.0339, -0.0979, 0.1109, -0.3621, 159, 174
13.1380, 0.0720, 0.2927, -0.0973, -0.3520, -0.0155, 0.9742, 284086, 0.0444, -0.3127, -0.1034, -0.0339, -0.0980, 0.1108, -0.3582, 159, 174
13.1530, 0.0720, 0.2927, -0.0973, -0.3520, -0.0155, 0.9742, 284086, 0.0443, -0.3127, -0.1034, -0.0339, -0.0979, 0.1109, -0.3582, 159, 174
13.1850, 0.0083, -0.0363, -0.0427, -0.3491, -0.0161, 0.9749, 284126, 0.0443, -0.3127, -0.1034, -0.0339, -0.0981, 0.1108, -0.3497, 172, 161
13.2000, -0.0196, 0.3341, -0.2231, -0.3475, -0.0162, 0.9748, 284146, 0.0444, -0.3127, -0.1033, -0.0338, -0.0980, 0.1109, -0.3451, 161, 172
13.2160, -0.0196, 0.3341, -0.2231, -0.3475, -0.0162, 0.9748, 284146, 0.0443, -0.3128, -0.1034, -0.0339, -0.0980, 0.1109, -0.3451, 161, 172
13.2470, -0.1175, 0.0745, 0.1419, -0.3428, -0.0171, 0.9760, 284186, 0.0443, -0.3127, -0.1033, -0.0338, -0.0981, 0.1108, -0.3352, 172, 161
13.2630, 0.2406, 0.1005, 0.1379, -0.3348, -0.0173, 0.9756, 284226, 0.0444, -0.3127, -0.1034, -0.0338, -0.0978, 0.1109, -0.3245, 167, 165
13.2780, 0.2406, 0.1005, 0.1379, -0.3348, -0.0173, 0.9756, 284226, 0.0442, -0.3127, -0.1034, -0.0338, -0.0982, 0.1107, -0.3245, 167, 165
13.2940, -0.1597, 0.0449, 0.1269, -0.3307, -0.0164, 0.9763, 284246, 0.0444, -0.3127, -0.1034, -0.0339, -0.0980, 0.1109, -0.3189, 168, 164
13.3250, 0.3879, 0.3787, -0.1191, -0.3192, -0.0164, 0.9762, 284286, 0.0443, -0.3127, -0.1034, -0.0339, -0.0980, 0.1108, -0.3069, 161, 170
13.3410, 0.3879, 0.3787, -0.1191, -0.3192, -0.0164, 0.9762, 284286, 0.0443, -0.3127, -0.1034, -0.0340, -0.0980, 0.1108, -0.3069, 161, 170
13.3560, 0.0067, 0.1188, 0.0589, -0.3131, -0.0166, 0.9762, 284306, 0.0443, -0.3127, -0.1034, -0.0338, -0.0979, 0.1109, -0.3007, 162, 169
13.3720, 0.0067, 0.1188, 0.0589, -0.3131, -0.0166, 0.9762, 284306, 0.0443, -0.3127, -0.1034, -0.0338, -0.0982, 0.1107, -0.3007, 162, 169
13.4030, 0.1306, 0.5996, -0.1887, -0.3005, -0.0173, 0.9762, 284346, 0.0444, -0.3127, -0.1034, -0.0339, -0.0980, 0.1109, -0.2876, 160, 170
13.4190, 0.0269, -0.1086, 0.2771, -0.2915, -0.0171, 0.9760, 284386, 0.0444, -0.3127, -0.1034, -0.0339, -0.0978, 0.1108, -0.2738, 171, 159
13.4350, 0.0269, -0.1086, 0.2771, -0.2915, -0.0171, 0.9760, 284386, 0.0443, -0.3127, -0.1034, -0.0339, -0.0981, 0.1107, -0.2738, 171, 159
13.4660, -0.0696, 0.3107, -0.2389, -0.2878, -0.0171, 0.9755, 284406, 0.0444, -0.3127, -0.1034, -0.0338, -0.0979, 0.1109, -0.2667, 170, 160
13.4810, 0.3518, 0.0234, 0.2739, -0.2772, -0.0173, 0.9756, 284446, 0.0443, -0.3127, -0.1034, -0.0338, -0.0981, 0.1107, -0.2518, 167, 162
13.4970, 0.3518, 0.0234, 0.2739, -0.2772, -0.0173, 0.9756, 284446, 0.0444, -0.3127, -0.1034, -0.0339, -0.0980, 0.1109, -0.2518, 167, 162
13.5130, -0.3967, 0.3534, -0.0712, -0.2733, -0.0175, 0.9763, 284466, 0.0444, -0.3127, -0.1033, -0.0338, -0.0978, 0.1109, -0.2442, 168, 160
13.5440, 0.2532, 0.0124, 0.0970, -0.2656, -0.0168, 0.9756, 284506, 0.0443, -0.3127, -0.1034, -0.0339, -0.0979, 0.1108, -0.2284, 170, 158
13.5600, 0.2532, 0.0124, 0.0970, -0.2656, -0.0168, 0.9756, 284506, 0.0443, -0.3127, -0.1033, -0.0339, -0.0980, 0.1109, -0.2284, 170, 158
13.5750, 0.0129, 0.2932, -0.1371, -0.2585, -0.0171, 0.9758, 284546, 0.0443, -0.3127, -0.1034, -0.0339, -0.0980, 0.1108, -0.2121, 174, 153
13.6060, -0.0070, 0.5830, -0.1634, -0.2536, -0.0164, 0.9753, 284566, 0.0443, -0.3127, -0.1034, -0.0339, -0.0981, 0.1108, -0.2037, 167, 160
13.6220, -0.0070, 0.5830, -0.1634, -0.2536, -0.0164, 0.9753, 284566, 0.0443, -0.3127, -0.1033, -0.0338, -0.0981, 0.1109, -0.2037, 167, 160
13.6380, 0.0027, 0.4787, 0.0949, -0.2368, -0.0168, 0.9762, 284606, 0.0443, -0.3127, -0.1034, -0.0339, -0.0980, 0.1108, -0.1866, 173, 154
13.6530, 0.0027, 0.4787, 0.0949, -0.2368, -0.0168, 0.9762, 284606, 0.0443, -0.3127, -0.1033, -0.0339, -0.0981, 0.1107, -0.1866, 173, 154
13.6840, -0.2051, 0.8899, -0.2623, -0.2236, -0.0176, 0.9756, 284626, 0.0443, -0.3127, -0.1033, -0.0338, -0.0982, 0.1107, -0.1778, 159, 167
13.7000, -0.0844, 0.3368, 0.1457, -0.1977, -0.0171, 0.9760, 284666, 0.0443, -0.3127, -0.1034, -0.0339, -0.0981, 0.1108, -0.1600, 167, 159
13.7160, -0.0844, 0.3368, 0.1457, -0.1977, -0.0171, 0.9760, 284666, 0.0443, -0.3127, -0.1033, -0.0338, -0.0980, 0.1108, -0.1600, 167, 159
13.7470, -0.3303, 0.5569, -0.0538, -0.1873, -0.0182, 0.9758, 284686, 0.0443, -0.3127, -0.1034, -0.0339, -0.0980, 0.1109, -0.1510, 165, 159
13.7630, 0.1051, 0.3709, -0.0059, -0.1707, -0.0175, 0.9755, 284726, 0.0443, -0.3127, -0.1033, -0.0338, -0.0982, 0.1109, -0.1326, 162, 162
13.7780, 0.1051, 0.3709, -0.0059, -0.1707, -0.0175, 0.9755, 284726, 0.0443, -0.3127, -0.1034, -0.0339, -0.0980, 0.1109, -0.1326, 162, 162
13.7940, -0.0806, 0.1027, 0.1933, -0.1655, -0.0180, 0.9762, 284746, 0.0442, -0.3127, -0.1033, -0.0338, -0.0982, 0.1108, -0.1232, 172, 152
13.8250, 0.0790, 0.5518, -0.1126, -0.1580, -0.0175, 0.9760, 284766, 0.0443, -0.3127, -0.1034, -0.0338, -0.0982, 0.1108, -0.1138, 165, 159
13.8410, 0.0790, 0.5518, -0.1126, -0.1580, -0.0175, 0.9760, 284766, 0.0443, -0.3127, -0.1033, -0.0338, -0.0980, 0.1108, -0.1138, 165, 159
13.8560, 0.1279, 0.1105, 0.3083, -0.1408, -0.0171, 0.9755, 284806, 0.0443, -0.3127, -0.1033, -0.0339, -0.0982, 0.1108, -0.0948, 170, 153
13.8880, 0.1279, 0.1105, 0.3083, -0.1408, -0.0171, 0.9755, 284806, 0.0443, -0.3127, -0.1034, -0.0338, -0.0980, 0.1109, -0.0948, 170, 153
13.9030, -0.1137, 0.4994, -0.0210, -0.1311, -0.0171, 0.9756, 284826, 0.0443, -0.3127, -0.1034, -0.0338, -0.0981, 0.1108, -0.0852, 169, 154
13.9190, -0.1137, 0.4994, -0.0210, -0.1311, -0.0171, 0.9756, 284826, 0.0443, -0.3127, -0.1033, -0.0338, -0.0980, 0.1108, -0.0852, 169, 154
13.9340, -0.1137, 0.4994, -0.0210, -0.1311, -0.0171, 0.9756, 284826, 0.0444, -0.3127, -0.1033, -0.0338, -0.0978, 0.1109, -0.0852, 169, 154
13.9660, 0.0161, 0.6335, -0.0804, -0.0888, -0.0169, 0.9746, 284906, 0.0442, -0.3127, -0.1034, -0.0338, -0.0982, 0.1108, -0.0463, 162, 160
13.9810, 0.3309, 0.5674, -0.0693, -0.0803, -0.0161, 0.9742, 284926, 0.0443, -0.3127, -0.1034, -0.0339, -0.0979, 0.1110, -0.0365, 163, 159
13.9970, 0.3309, 0.5674, -0.0693, -0.0803, -0.0161, 0.9742, 284926, 0.0443, -0.3126, -0.1033, -0.0339, -0.0982, 0.1106, -0.0365, 163, 159
14.0130, -0.0379, 0.5443, 0.1021, -0.0595, -0.0166, 0.9741, 284966, 0.0443, -0.3127, -0.1034, -0.0339, -0.0981, 0.1109, -0.0168, 162, 160
14.0440, -0.0653, 0.3895, 0.0589, -0.0398, -0.0161, 0.9728, 285006, 0.0444, -0.3127, -0.1033, -0.0338, -0.0978, 0.1109, 0.0030, 160, 162
14.0590, -0.0653, 0.3895, 0.0589, -0.0398, -0.0161, 0.9728, 285006, 0.0443, -0.3127, -0.1034, -0.0338, -0.0981, 0.1108, 0.0030, 160, 162
14.0750, 0.0860, 0.1691, 0.1785, -0.0332, -0.0155, 0.9734, 285026, 0.0443, -0.3126, -0.1034, -0.0338, -0.0981, 0.1108, 0.0128, 170, 151
14.1060, 0.0691, 0.6574, 0.0306, -0.0187, -0.0157, 0.9721, 285066, 0.0443, -0.3127, -0.1034, -0.0338, -0.0982, 0.1109, 0.0325, 160, 161
14.1220, 0.0691, 0.6574, 0.0306, -0.0187, -0.0157, 0.9721, 285066, 0.0443, -0.3127, -0.1034, -0.0338, -0.0980, 0.1108, 0.0325, 160, 161
14.1380, 0.1599, 0.5376, 0.2752, -0.0072, -0.0145, 0.9725, 285086, 0.0444, -0.3127, -0.1033, -0.0338, -0.0979, 0.1109, 0.0424, 162, 159
14.1530, 0.1599, 0.5376, 0.2752, -0.0072, -0.0145, 0.9725, 285086, 0.0443, -0.3127, -0.1034, -0.0340, -0.0981, 0.1108, 0.0424, 162, 159
14.1840, 0.3852, 0.5558, -0.1261, 0.0211, -0.0143, 0.9720, 285126, 0.0443, -0.3126, -0.1034, -0.0339, -0.0981, 0.1109, 0.0619, 161, 161
14.2000, -0.2416, 0.2854, 0.1782, 0.0414, -0.0127, 0.9715, 285166, 0.0443, -0.3127, -0.1033, -0.0337, -0.0980, 0.1109, 0.0813, 166, 155
14.2160, -0.2416, 0.2854, 0.1782, 0.0414, -0.0127, 0.9715, 285166, 0.0443, -0.3127, -0.1034, -0.0339, -0.0980, 0.1109, 0.0813, 166, 155
14.2470, 0.0016, 0.4446, 0.1019, 0.0494, -0.0133, 0.9715, 285186, 0.0443, -0.3126, -0.1033, -0.0338, -0.0981, 0.1108, 0.0910, 167, 155
14.2620, -0.0578, 0.4959, 0.1175, 0.0675, -0.0133, 0.9702, 285226, 0.0443, -0.3127, -0.1034, -0.0338, -0.0980, 0.1108, 0.1100, 163, 159
14.2780, -0.0578, 0.4959, 0.1175, 0.0675, -0.0133, 0.9702, 285226, 0.0443, -0.3126, -0.1033, -0.0338, -0.0982, 0.1107, 0.1100, 163, 159
14.2940, 0.1478, 0.2459, 0.1234, 0.0771, -0.0133, 0.9708, 285246, 0.0443, -0.3127, -0.1033, -0.0338, -0.0982, 0.1108, 0.1195, 170, 151
14.3250, 0.0898, 0.6830, 0.0024, 0.1004, -0.0131, 0.9701, 285286, 0.0443, -0.3127, -0.1034, -0.0338, -0.0981, 0.1108, 0.1381, 156, 166
14.3410, 0.0898, 0.6830, 0.0024, 0.1004, -0.0131, 0.9701, 285286, 0.0443, -0.3126, -0.1033, -0.0338, -0.0981, 0.1109, 0.1381, 156, 166
14.3560, -0.4518, 0.5730, -0.0839, 0.1154, -0.0117, 0.9708, 285326, 0.0443, -0.3127, -0.1034, -0.0338, -0.0980, 0.1109, 0.1564, 167, 155
14.3870, -0.0575, 0.5265, -0.1312, 0.1227, -0.0120, 0.9697, 285346, 0.0443, -0.3127, -0.1033, -0.0338, -0.0982, 0.1108, 0.1654, 161, 162
14.4030, -0.0575, 0.5265, -0.1312, 0.1227, -0.0120, 0.9697, 285346, 0.0443, -0.3127, -0.1034, -0.0339, -0.0980, 0.1109, 0.1654, 161, 162
14.4190, -0.4282, 0.4244, 0.0320, 0.1375, -0.0120, 0.9702, 285386, 0.0443, -0.3127, -0.1034, -0.0338, -0.0981, 0.1109, 0.1831, 167, 156
14.4340, -0.4282, 0.4244, 0.0320, 0.1375, -0.0120, 0.9702, 285386, 0.0443, -0.3127, -0.1033, -0.0338, -0.0982, 0.1108, 0.1831, 167, 156
14.4660, 0.2854, 0.8128, -0.0685, 0.1503, -0.0110, 0.9702, 285406, 0.0443, -0.3127, -0.1034, -0.0339, -0.0979, 0.1109, 0.1918, 159, 165
14.4810, -0.2295, 0.4561, 0.1865, 0.1780, -0.0108, 0.9702, 285446, 0.0443, -0.3127, -0.1033, -0.0338, -0.0982, 0.1107, 0.2088, 162, 163
14.4970, -0.2295, 0.4561, 0.1865, 0.1780, -0.0108, 0.9702, 285446, 0.0443, -0.3127, -0.1034, -0.0339, -0.0980, 0.1110, 0.2088, 162, 163
14.5280, 0.1075, 0.5921, -0.2685, 0.1990, -0.0096, 0.9702, 285486, 0.0443, -0.3127, -0.1033, -0.0338, -0.0981, 0.1109, 0.2252, 159, 166
14.5440, -0.1336, 0.3849, -0.0247, 0.2059, -0.0101, 0.9701, 285506, 0.0443, -0.3127, -0.1033, -0.0338, -0.0981, 0.1109, 0.2332, 159, 167
14.5590, -0.1336, 0.3849, -0.0247, 0.2059, -0.0101, 0.9701, 285506, 0.0444, -0.3127, -0.1033, -0.0338, -0.0978, 0.1109, 0.2332, 159, 167
14.5750, 0.2161, 0.1037, 0.1911, 0.2122, -0.0101, 0.9701, 285526, 0.0443, -0.3127, -0.1033, -0.0338, -0.0982, 0.1107, 0.2411, 169, 157
14.6060, -0.0309, 0.5760, -0.0056, 0.2265, -0.0110, 0.9688, 285566, 0.0443, -0.3127, -0.1034, -0.0339, -0.0980, 0.1108, 0.2564, 160, 166
14.6220, -0.0309, 0.5760, -0.0056, 0.2265, -0.0110, 0.9688, 285566, 0.0443, -0.3127, -0.1033, -0.0339, -0.0980, 0.1108, 0.2564, 160, 166
14.6370, 0.3145, -0.0357, 0.3198, 0.2342, -0.0099, 0.9694, 285586, 0.0443, -0.3127, -0.1034, -0.0338, -0.0982, 0.1108, 0.2637, 172, 154
14.6530, 0.3145, -0.0357, 0.3198, 0.2342, -0.0099, 0.9694, 285586, 0.0443, -0.3127, -0.1034, -0.0339, -0.0980, 0.1109, 0.2637, 172, 154
14.6840, -0.0538, 0.5881, -0.1091, 0.2538, -0.0122, 0.9690, 285626, 0.0443, -0.3127, -0.1033, -0.0338, -0.0981, 0.1108, 0.2780, 158, 169
14.7000, 0.3865, 0.2771, 0.1312, 0.2621, -0.0113, 0.9692, 285646, 0.0443, -0.3127, -0.1034, -0.0339, -0.0981, 0.1109, 0.2849, 165, 163
14.7160, 0.3865, 0.2771, 0.1312, 0.2621, -0.0113, 0.9692, 285646, 0.0443, -0.3127, -0.1033, -0.0339, -0.0980, 0.1108, 0.2849, 165, 163
14.7470, 0.2346, 0.6910, -0.0793, 0.2770, -0.0126, 0.9692, 285686, 0.0443, -0.3127, -0.1034, -0.0338, -0.0981, 0.1108, 0.2981, 157, 171
14.7620, -0.1519, 0.1718, 0.1621, 0.2916, -0.0129, 0.9692, 285726, 0.0443, -0.3127, -0.1034, -0.0339, -0.0980, 0.1109, 0.3106, 164, 165
14.7780, -0.1519, 0.1718, 0.1621, 0.2916, -0.0129, 0.9692, 285726, 0.0444, -0.3127, -0.1034, -0.0339, -0.0980, 0.1109, 0.3106, 164, 165
14.7940, -0.0508, 0.6443, -0.0693, 0.2997, -0.0124, 0.9692, 285746, 0.0443, -0.3127, -0.1034, -0.0340, -0.0980, 0.1109, 0.3165, 162, 168
14.8250, -0.0427, 0.6642, -0.2427, 0.3098, -0.0122, 0.9688, 285766, 0.0443, -0.3127, -0.1034, -0.0339, -0.0980, 0.1109, 0.3223, 157, 174
14.8400, -0.0427, 0.6642, -0.2427, 0.3098, -0.0122, 0.9688, 285766, 0.0443, -0.3128, -0.1034, -0.0339, -0.0980, 0.1109, 0.3223, 157, 174
14.8560, 0.0943, 0.2295, 0.1250, 0.3231, -0.0129, 0.9695, 285806, 0.0443, -0.3127, -0.1033, -0.0338, -0.0981, 0.1107, 0.3331, 164, 167
14.8870, 0.0384, 0.3623, 0.1083, 0.3351, -0.0141, 0.9688, 285846, 0.0444, -0.3127, -0.1034, -0.0338, -0.0978, 0.1109, 0.3432, 161, 171
14.9030, 0.0384, 0.3623, 0.1083, 0.3351, -0.0141, 0.9688, 285846, 0.0443, -0.3128, -0.1034, -0.0340, -0.0980, 0.1108, 0.3432, 161, 171
14.9190, 0.2742, -0.1261, 0.2865, 0.3403, -0.0131, 0.9697, 285866, 0.0443, -0.3127, -0.1033, -0.0339, -0.0980, 0.1109, 0.3479, 169, 164
14.9340, 0.2742, -0.1261, 0.2865, 0.3403, -0.0131, 0.9697, 285866, 0.0443, -0.3128, -0.1034, -0.0338, -0.0982, 0.1108, 0.3479, 169, 164
14.9650, -0.3247, 0.5075, -0.1610, 0.3534, -0.0148, 0.9695, 285906, 0.0443, -0.3127, -0.1033, -0.0339, -0.0981, 0.1108, 0.3566, 158, 175
14.9810, 0.3521, 0.0962, 0.0570, 0.3595, -0.0131, 0.9694, 285926, 0.0443, -0.3127, -0.1034, -0.0339, -0.0980, 0.1109, 0.3606, 163, 171
14.9970, 0.3521, 0.0962, 0.0570, 0.3595, -0.0131, 0.9694, 285926, 0.0443, -0.3127, -0.1034, -0.0339, -0.0980, 0.1108, 0.3606, 163, 171
15.0280, 0.2513, 0.4292, -0.0492, 0.3690, -0.0141, 0.9695, 285966, 0.0443, -0.3127, -0.1033, -0.0338, -0.0980, 0.1109, 0.3680, 162, 173
15.0440, -0.0489, 0.0027, 0.1613, 0.3831, -0.0131, 0.9692, 286006, 0.0443, -0.3128, -0.1034, -0.0339, -0.0980, 0.1108, 0.3744, 160, 175
15.0590, -0.0489, 0.0027, 0.1613, 0.3831, -0.0131, 0.9692, 286006, 0.0443, -0.3127, -0.1033, -0.0339, -0.0981, 0.1108, 0.3744, 160, 175
15.0750, 0.0470, 0.1008, 0.0763, 0.3869, -0.0127, 0.9697, 286026, 0.0443, -0.3127, -0.1034, -0.0339, -0.0979, 0.1109, 0.3772, 167, 169
