time (s), accel_x (m/s^2), accel_y (m/s^2), accel_z (m/s^2), gyro_x (rad/s), gyro_y (rad/s), gyro_z (rad/s), x (m), y (m), z (m), yaw (rad), pitch (rad), roll (rad), mocap_counter, counter, desired x, desired y, desired z, desired yaw
0.0000, -0.1275, -0.0490, -9.6007, -0.0086, 0.0099, 0.0062, -0.0332, 0.0069, -0.0952, 0.2429, -0.0076, -0.1054, 126, 114292, 0.0000, 0.0000, 0.0000, 0.0000
0.0200, -0.1275, -0.0490, -9.6007, -0.0086, 0.0099, 0.0062, -0.0333, 0.0069, -0.0951, 0.2429, -0.0076, -0.1056, 127, 114292, 0.0000, 0.0000, 0.0000, 0.0000
0.0400, -0.1275, -0.0490, -9.6007, -0.0086, 0.0099, 0.0062, -0.0332, 0.0069, -0.0951, 0.2429, -0.0077, -0.1056, 128, 114292, 0.0000, 0.0000, 0.0000, 0.0000
0.0600, -0.1177, -0.0785, -9.6105, -0.0051, 0.0083, -0.0032, -0.0332, 0.0069, -0.0952, 0.2429, -0.0076, -0.1056, 129, 115292, 0.0000, 0.0000, 0.0000, 0.0000
0.0800, -0.1177, -0.0785, -9.6105, -0.0051, 0.0083, -0.0032, -0.0333, 0.0070, -0.0951, 0.2429, -0.0076, -0.1056, 130, 115292, 0.0000, 0.0000, 0.0000, 0.0000
0.1000, -0.1177, -0.0785, -9.6105, -0.0051, 0.0083, -0.0032, -0.0332, 0.0069, -0.0952, 0.2429, -0.0077, -0.1054, 131, 115292, 0.0000, 0.0000, 0.0000, 0.0000
0.1200, -0.1177, -0.0785, -9.6105, -0.0051, 0.0083, -0.0032, -0.0333, 0.0069, -0.0951, 0.2430, -0.0075, -0.1057, 132, 115292, 0.0000, 0.0000, 0.0000, 0.0000
0.1400, -0.1177, -0.0785, -9.6105, -0.0051, 0.0083, -0.0032, -0.0332, 0.0070, -0.0952, 0.2429, -0.0077, -0.1056, 133, 115292, 0.0000, 0.0000, 0.0000, 0.0000
0.1600, -0.1177, -0.0785, -9.6105, -0.0051, 0.0083, -0.0032, -0.0333, 0.0069, -0.0951, 0.2429, -0.0076, -0.1056, 134, 115292, 0.0000, 0.0000, 0.0000, 0.0000
0.1800, -0.1177, -0.0785, -9.6105, -0.0051, 0.0083, -0.0032, -0.0333, 0.0069, -0.0951, 0.2429, -0.0076, -0.1056, 135, 115292, 0.0000, 0.0000, 0.0000, 0.0000
0.2000, -0.1177, -0.0785, -9.6105, -0.0051, 0.0083, -0.0032, -0.0332, 0.0070, -0.0952, 0.2429, -0.0077, -0.1054, 136, 115292, 0.0000, 0.0000, 0.0000, 0.0000
0.2200, -0.1177, -0.0785, -9.6105, -0.0051, 0.0083, -0.0032, -0.0333, 0.0069, -0.0951, 0.2429, -0.0076, -0.1058, 137, 115292, 0.0000, 0.0000, 0.0000, 0.0000
0.2420, -0.1177, -0.0785, -9.6105, -0.0051, 0.0083, -0.0032, -0.0332, 0.0070, -0.0952, 0.2429, -0.0077, -0.1055, 138, 115292, 0.0000, 0.0000, 0.0000, 0.0000
0.2620, -0.1177, -0.0785, -9.6105, -0.0051, 0.0083, -0.0032, -0.0333, 0.0069, -0.0951, 0.2429, -0.0077, -0.1058, 139, 115292, 0.0000, 0.0000, 0.0000, 0.0000
0.2820, -0.1177, -0.0785, -9.6105, -0.0051, 0.0083, -0.0032, -0.0333, 0.0069, -0.0951, 0.2429, -0.0077, -0.1057, 140, 115292, 0.0000, 0.0000, 0.0000, 0.0000
0.3020, -0.1177, -0.0785, -9.6105, -0.0051, 0.0083, -0.0032, -0.0333, 0.0069, -0.0951, 0.2429, -0.0077, -0.1057, 141, 115292, 0.0000, 0.0000, 0.0000, 0.0000
0.3220, -0.1177, -0.0785, -9.6105, -0.0051, 0.0083, -0.0032, -0.0333, 0.0069, -0.0951, 0.2429, -0.0077, -0.1056, 142, 115292, 0.0000, 0.0000, 0.0000, 0.0000
0.3420, -0.1177, -0.0785, -9.6105, -0.0051, 0.0083, -0.0032, -0.0332, 0.0069, -0.0952, 0.2429, -0.0077, -0.1055, 143, 115292, 0.0000, 0.0000, 0.0000, 0.0000
0.3620, -0.1177, -0.0785, -9.6105, -0.0051, 0.0083, -0.0032, -0.0333, 0.0069, -0.0951, 0.2429, -0.0077, -0.1055, 144, 115292, 0.0000, 0.0000, 0.0000, 0.0000
0.3820, -0.1177, -0.0785, -9.6105, -0.0051, 0.0083, -0.0032, -0.0332, 0.0069, -0.0952, 0.2428, -0.0077, -0.1055, 145, 115292, 0.0000, 0.0000, 0.0000, 0.0000
0.4020, -0.1177, -0.0785, -9.6105, -0.0051, 0.0083, -0.0032, -0.0333, 0.0069, -0.0951, 0.2428, -0.0078, -0.1055, 146, 115292, 0.0000, 0.0000, 0.0000, 0.0000
0.4220, -0.1177, -0.0785, -9.6105, -0.0051, 0.0083, -0.0032, -0.0333, 0.0069, -0.0951, 0.2429, -0.0077, -0.1056, 147, 115292, 0.0000, 0.0000, 0.0000, 0.0000
0.4420, -0.1177, -0.0785, -9.6105, -0.0051, 0.0083, -0.0032, -0.0332, 0.0069, -0.0952, 0.2428, -0.0077, -0.1056, 148, 115292, 0.0000, 0.0000, 0.0000, 0.0000
0.4620, -0.1177, -0.0785, -9.6105, -0.0051, 0.0083, -0.0032, -0.0333, 0.0069, -0.0951, 0.2429, -0.0077, -0.1056, 149, 115292, 0.0000, 0.0000, 0.0000, 0.0000
0.4820, -0.1177, -0.0785, -9.6105, -0.0051, 0.0083, -0.0032, -0.0332, 0.0069, -0.0952, 0.2428, -0.0077, -0.1055, 150, 115292, 0.0000, 0.0000, 0.0000, 0.0000
0.5020, -0.1177, -0.0785, -9.6105, -0.0051, 0.0083, -0.0032, -0.0333, 0.0069, -0.0951, 0.2428, -0.0077, -0.1057, 151, 115292, 0.0000, 0.0000, 0.0000, 0.0000
0.5220, -0.1177, -0.0785, -9.6105, -0.0051, 0.0083, -0.0032, -0.0332, 0.0070, -0.0951, 0.2428, -0.0076, -0.1057, 152, 115292, 0.0000, 0.0000, 0.0000, 0.0000
0.5420, -0.1177, -0.0785, -9.6105, -0.0051, 0.0083, -0.0032, -0.0332, 0.0069, -0.0952, 0.2429, -0.0076, -0.1057, 153, 115292, 0.0000, 0.0000, 0.0000, 0.0000
0.5620, -0.1177, -0.0785, -9.6105, -0.0051, 0.0083, -0.0032, -0.0333, 0.0069, -0.0951, 0.2428, -0.0077, -0.1057, 154, 115292, 0.0000, 0.0000, 0.0000, 0.0000
0.5820, -0.1177, -0.0785, -9.6105, -0.0051, 0.0083, -0.0032, -0.0333, 0.0069, -0.0952, 0.2429, -0.0077, -0.1056, 155, 115292, 0.0000, 0.0000, 0.0000, 0.0000
0.6020, -0.1177, -0.0785, -9.6105, -0.0051, 0.0083, -0.0032, -0.0333, 0.0069, -0.0951, 0.2428, -0.0076, -0.1058, 156, 115292, 0.0000, 0.0000, 0.0000, 0.0000
0.6220, -0.1177, -0.0785, -9.6105, -0.0051, 0.0083, -0.0032, -0.0332, 0.0070, -0.0952, 0.2428, -0.0077, -0.1056, 157, 115292, 0.0000, 0.0000, 0.0000, 0.0000
0.6420, -0.1177, -0.0785, -9.6105, -0.0051, 0.0083, -0.0032, -0.0333, 0.0069, -0.0951, 0.2429, -0.0076, -0.1057, 158, 115292, 0.0000, 0.0000, 0.0000, 0.0000
0.6620, -0.1177, -0.0785, -9.6105, -0.0051, 0.0083, -0.0032, -0.0332, 0.0069, -0.0951, 0.2428, -0.0077, -0.1057, 159, 115292, 0.0000, 0.0000, 0.0000, 0.0000
0.6820, -0.1177, -0.0785, -9.6105, -0.0051, 0.0083, -0.0032, -0.0333, 0.0069, -0.0952, 0.2428, -0.0077, -0.1058, 160, 115292, 0.0000, 0.0000, 0.0000, 0.0000
0.7020, -0.1177, -0.0785, -9.6105, -0.0051, 0.0083, -0.0032, -0.0333, 0.0069, -0.0951, 0.2429, -0.0076, -0.1056, 161, 115292, 0.0000, 0.0000, 0.0000, 0.0000
0.7220, -0.1177, -0.0785, -9.6105, -0.0051, 0.0083, -0.0032, -0.0332, 0.0070, -0.0952, 0.2429, -0.0077, -0.1055, 162, 115292, 0.0000, 0.0000, 0.0000, 0.0000
0.7420, -0.1177, -0.0785, -9.6105, -0.0051, 0.0083, -0.0032, -0.0333, 0.0069, -0.0951, 0.2428, -0.0076, -0.1057, 163, 115292, 0.0000, 0.0000, 0.0000, 0.0000
0.7620, -0.1177, -0.0785, -9.6105, -0.0051, 0.0083, -0.0032, -0.0332, 0.0069, -0.0952, 0.2428, -0.0078, -0.1057, 164, 115292, 0.0000, 0.0000, 0.0000, 0.0000
0.7820, -0.1177, -0.0785, -9.6105, -0.0051, 0.0083, -0.0032, -0.0333, 0.0069, -0.0951, 0.2429, -0.0077, -0.1056, 165, 115292, 0.0000, 0.0000, 0.0000, 0.0000
0.8020, -0.1177, -0.0785, -9.6105, -0.0051, 0.0083, -0.0032, -0.0332, 0.0069, -0.0951, 0.2429, -0.0076, -0.1057, 166, 115292, 0.0000, 0.0000, 0.0000, 0.0000
0.8220, -0.1177, -0.0785, -9.6105, -0.0051, 0.0083, -0.0032, -0.0332, 0.0069, -0.0952, 0.2428, -0.0077, -0.1053, 167, 115292, 0.0000, 0.0000, 0.0000, 0.0000
0.8420, -0.1177, -0.0785, -9.6105, -0.0051, 0.0083, -0.0032, -0.0333, 0.0069, -0.0951, 0.2428, -0.0076, -0.1058, 168, 115292, 0.0000, 0.0000, 0.0000, 0.0000
0.8620, -0.1177, -0.0785, -9.6105, -0.0051, 0.0083, -0.0032, -0.0332, 0.0069, -0.0952, 0.2429, -0.0078, -0.1056, 169, 115292, 0.0000, 0.0000, 0.0000, 0.0000
0.8820, -0.1177, -0.0785, -9.6105, -0.0051, 0.0083, -0.0032, -0.0333, 0.0069, -0.0951, 0.2428, -0.0077, -0.1057, 170, 115292, 0.0000, 0.0000, 0.0000, 0.0000
0.9020, -0.1177, -0.0785, -9.6105, -0.0051, 0.0083, -0.0032, -0.0333, 0.0069, -0.0952, 0.2428, -0.0076, -0.1056, 171, 115292, 0.0000, 0.0000, 0.0000, 0.0000
0.9220, -0.1177, -0.0785, -9.6105, -0.0051, 0.0083, -0.0032, -0.0332, 0.0069, -0.0951, 0.2428, -0.0078, -0.1057, 172, 115292, 0.0000, 0.0000, 0.0000, 0.0000
0.9420, -0.1177, -0.0785, -9.6105, -0.0051, 0.0083, -0.0032, -0.0333, 0.0069, -0.0951, 0.2429, -0.0076, -0.1057, 173, 115292, 0.0000, 0.0000, 0.0000, 0.0000
0.9620, -0.1177, -0.0785, -9.6105, -0.0051, 0.0083, -0.0032, -0.0332, 0.0069, -0.0952, 0.2429, -0.0077, -0.1057, 174, 115292, 0.0000, 0.0000, 0.0000, 0.0000
0.9820, -0.1177, -0.0785, -9.6105, -0.0051, 0.0083, -0.0032, -0.0333, 0.0069, -0.0951, 0.2428, -0.0076, -0.1057, 175, 115292, 0.0000, 0.0000, 0.0000, 0.0000
1.0020, -0.1177, -0.0785, -9.6105, -0.0051, 0.0083, -0.0032, -0.0332, 0.0069, -0.0952, 0.2428, -0.0077, -0.1057, 176, 115292, 0.0000, 0.0000, 0.0000, 0.0000
1.0220, -0.1177, -0.0785, -9.6105, -0.0051, 0.0083, -0.0032, -0.0332, 0.0069, -0.0951, 0.2429, -0.0077, -0.1057, 177, 115292, 0.0000, 0.0000, 0.0000, 0.0000
1.0420, -0.1177, -0.0785, -9.6105, -0.0051, 0.0083, -0.0032, -0.0332, 0.0070, -0.0951, 0.2428, -0.0076, -0.1057, 178, 115292, 0.0000, 0.0000, 0.0000, 0.0000
1.0620, -0.1177, -0.0785, -9.6105, -0.0051, 0.0083, -0.0032, -0.0333, 0.0069, -0.0952, 0.2428, -0.0077, -0.1055, 179, 115292, 0.0000, 0.0000, 0.0000, 0.0000
1.0820, -0.1177, -0.0785, -9.6105, -0.0051, 0.0083, -0.0032, -0.0333, 0.0069, -0.0951, 0.2429, -0.0076, -0.1057, 180, 115292, 0.0000, 0.0000, 0.0000, 0.0000
1.1020, -0.1177, -0.0785, -9.6105, -0.0051, 0.0083, -0.0032, -0.0332, 0.0070, -0.0952, 0.2428, -0.0076, -0.1056, 181, 115292, 0.0000, 0.0000, 0.0000, 0.0000
1.1220, -0.1177, -0.0785, -9.6105, -0.0051, 0.0083, -0.0032, -0.0333, 0.0069, -0.0951, 0.2428, -0.0076, -0.1057, 182, 115292, 0.0000, 0.0000, 0.0000, 0.0000
1.1420, -0.1177, -0.0785, -9.6105, -0.0051, 0.0083, -0.0032, -0.0332, 0.0070, -0.0951, 0.2428, -0.0078, -0.1057, 183, 115292, 0.0000, 0.0000, 0.0000, 0.0000
1.1620, -0.1177, -0.0785, -9.6105, -0.0051, 0.0083, -0.0032, -0.0332, 0.0070, -0.0952, 0.2429, -0.0077, -0.1056, 184, 115292, 0.0000, 0.0000, 0.0000, 0.0000
1.1840, -0.1177, -0.0785, -9.6105, -0.0051, 0.0083, -0.0032, -0.0333, 0.0069, -0.0951, 0.2428, -0.0076, -0.1056, 185, 115292, 0.0000, 0.0000, 0.0000, 0.0000
1.2040, -0.1177, -0.0785, -9.6105, -0.0051, 0.0083, -0.0032, -0.0332, 0.0069, -0.0952, 0.2428, -0.0078, -0.1055, 186, 115292, 0.0000, 0.0000, 0.0000, 0.0000
1.2240, -0.1177, -0.0785, -9.6105, -0.0051, 0.0083, -0.0032, -0.0333, 0.0069, -0.0951, 0.2429, -0.0076, -0.1059, 187, 115292, 0.0000, 0.0000, 0.0000, 0.0000
1.2440, -0.1177, -0.0785, -9.6105, -0.0051, 0.0083, -0.0032, -0.0332, 0.0070, -0.0951, 0.2428, -0.0078, -0.1056, 188, 115292, 0.0000, 0.0000, 0.0000, 0.0000
1.2630, -0.1177, -0.0785, -9.6105, -0.0051, 0.0083, -0.0032, -0.0333, 0.0069, -0.0952, 0.2429, -0.0075, -0.1057, 189, 115292, 0.0000, 0.0000, 0.0000, 0.0000
1.2840, -0.1177, -0.0785, -9.6105, -0.0051, 0.0083, -0.0032, -0.0333, 0.0069, -0.0951, 0.2428, -0.0077, -0.1058, 190, 115292, 0.0000, 0.0000, 0.0000, 0.0000
1.3040, -0.1177, -0.0785, -9.6105, -0.0051, 0.0083, -0.0032, -0.0332, 0.0070, -0.0952, 0.2428, -0.0077, -0.1058, 191, 115292, 0.0000, 0.0000, 0.0000, 0.0000
1.3240, -0.1177, -0.0785, -9.6105, -0.0051, 0.0083, -0.0032, -0.0333, 0.0069, -0.0951, 0.2429, -0.0076, -0.1057, 192, 115292, 0.0000, 0.0000, 0.0000, 0.0000
1.3440, -0.1177, -0.0785, -9.6105, -0.0051, 0.0083, -0.0032, -0.0332, 0.0069, -0.0952, 0.2428, -0.0078, -0.1054, 193, 115292, 0.0000, 0.0000, 0.0000, 0.0000
1.3640, -0.1177, -0.0785, -9.6105, -0.0051, 0.0083, -0.0032, -0.0333, 0.0070, -0.0951, 0.2428, -0.0075, -0.1058, 194, 115292, 0.0000, 0.0000, 0.0000, 0.0000
1.3840, -0.1177, -0.0785, -9.6105, -0.0051, 0.0083, -0.0032, -0.0332, 0.0070, -0.0952, 0.2428, -0.0077, -0.1056, 195, 115292, 0.0000, 0.0000, 0.0000, 0.0000
1.4040, -0.1177, -0.0785, -9.6105, -0.0051, 0.0083, -0.0032, -0.0333, 0.0069, -0.0951, 0.2428, -0.0077, -0.1058, 196, 115292, 0.0000, 0.0000, 0.0000, 0.0000
1.4240, -0.1177, -0.0785, -9.6105, -0.0051, 0.0083, -0.0032, -0.0333, 0.0069, -0.0951, 0.2428, -0.0075, -0.1056, 197, 115292, 0.0000, 0.0000, 0.0000, 0.0000
1.4440, -0.1177, -0.0785, -9.6105, -0.0051, 0.0083, -0.0032, -0.0332, 0.0070, -0.0952, 0.2429, -0.0077, -0.1055, 198, 115292, 0.0000, 0.0000, 0.0000, 0.0000
1.4630, -0.1177, -0.0785, -9.6105, -0.0051, 0.0083, -0.0032, -0.0333, 0.0069, -0.0951, 0.2429, -0.0076, -0.1058, 199, 115292, 0.0000, 0.0000, 0.0000, 0.0000
1.4840, -0.1177, -0.0785, -9.6105, -0.0051, 0.0083, -0.0032, -0.0332, 0.0069, -0.0952, 0.2428, -0.0077, -0.1058, 200, 115292, 0.0000, 0.0000, 0.0000, 0.0000
1.5040, -0.1177, -0.0785, -9.6105, -0.0051, 0.0083, -0.0032, -0.0333, 0.0070, -0.0951, 0.2429, -0.0077, -0.1057, 201, 115292, 0.0000, 0.0000, 0.0000, 0.0000
1.5240, -0.1177, -0.0785, -9.6105, -0.0051, 0.0083, -0.0032, -0.0333, 0.0069, -0.0951, 0.2428, -0.0076, -0.1058, 202, 115292, 0.0000, 0.0000, 0.0000, 0.0000
1.5440, -0.1177, -0.0785, -9.6105, -0.0051, 0.0083, -0.0032, -0.0333, 0.0070, -0.0952, 0.2428, -0.0077, -0.1057, 203, 115292, 0.0000, 0.0000, 0.0000, 0.0000
1.5630, -0.1177, -0.0785, -9.6105, -0.0051, 0.0083, -0.0032, -0.0333, 0.0070, -0.0951, 0.2428, -0.0076, -0.1059, 204, 115292, 0.0000, 0.0000, 0.0000, 0.0000
1.5840, -0.1177, -0.0785, -9.6105, -0.0051, 0.0083, -0.0032, -0.0332, 0.0070, -0.0952, 0.2429, -0.0077, -0.1056, 205, 115292, 0.0000, 0.0000, 0.0000, 0.0000
1.6040, -0.1177, -0.0785, -9.6105, -0.0051, 0.0083, -0.0032, -0.0333, 0.0069, -0.0951, 0.2428, -0.0076, -0.1057, 206, 115292, 0.0000, 0.0000, 0.0000, 0.0000
1.6240, -0.1177, -0.0785, -9.6105, -0.0051, 0.0083, -0.0032, -0.0332, 0.0070, -0.0952, 0.2429, -0.0076, -0.1058, 207, 115292, 0.0000, 0.0000, 0.0000, 0.0000
1.6440, -0.1177, -0.0785, -9.6105, -0.0051, 0.0083, -0.0032, -0.0332, 0.0069, -0.0952, 0.2428, -0.0077, -0.1058, 208, 115292, 0.0000, 0.0000, 0.0000, 0.0000
1.6630, -0.1177, -0.0785, -9.6105, -0.0051, 0.0083, -0.0032, -0.0332, 0.0069, -0.0951, 0.2429, -0.0076, -0.1057, 209, 115292, 0.0000, 0.0000, 0.0000, 0.0000
1.6840, -0.1177, -0.0785, -9.6105, -0.0051, 0.0083, -0.0032, -0.0333, 0.0070, -0.0952, 0.2428, -0.0076, -0.1057, 210, 115292, 0.0000, 0.0000, 0.0000, 0.0000
1.7040, -0.1177, -0.0785, -9.6105, -0.0051, 0.0083, -0.0032, -0.0333, 0.0070, -0.0951, 0.2429, -0.0076, -0.1057, 211, 115292, 0.0000, 0.0000, 0.0000, 0.0000
1.7240, -0.1177, -0.0785, -9.6105, -0.0051, 0.0083, -0.0032, -0.0332, 0.0069, -0.0952, 0.2429, -0.0076, -0.1058, 212, 115292, 0.0000, 0.0000, 0.0000, 0.0000
1.7440, -0.1177, -0.0785, -9.6105, -0.0051, 0.0083, -0.0032, -0.0333, 0.0069, -0.0951, 0.2428, -0.0076, -0.1058, 213, 115292, 0.0000, 0.0000, 0.0000, 0.0000
1.7640, -0.1177, -0.0785, -9.6105, -0.0051, 0.0083, -0.0032, -0.0332, 0.0069, -0.0951, 0.2428, -0.0077, -0.1057, 214, 115292, 0.0000, 0.0000, 0.0000, 0.0000
1.7840, -0.1177, -0.0785, -9.6105, -0.0051, 0.0083, -0.0032, -0.0332, 0.0070, -0.0952, 0.2428, -0.0076, -0.1058, 215, 115292, 0.0000, 0.0000, 0.0000, 0.0000
1.8040, -0.1177, -0.0785, -9.6105, -0.0051, 0.0083, -0.0032, -0.0333, 0.0069, -0.0951, 0.2429, -0.0077, -0.1057, 216, 115292, 0.0000, 0.0000, 0.0000, 0.0000
1.8240, -0.1177, -0.0785, -9.6105, -0.0051, 0.0083, -0.0032, -0.0332, 0.0069, -0.0952, 0.2429, -0.0077, -0.1056, 217, 115292, 0.0000, 0.0000, 0.0000, 0.0000
1.8440, -0.1177, -0.0785, -9.6105, -0.0051, 0.0083, -0.0032, -0.0333, 0.0069, -0.0951, 0.2429, -0.0076, -0.1058, 218, 115292, 0.0000, 0.0000, 0.0000, 0.0000
1.8640, -0.1177, -0.0785, -9.6105, -0.0051, 0.0083, -0.0032, -0.0332, 0.0069, -0.0952, 0.2429, -0.0078, -0.1056, 219, 115292, 0.0000, 0.0000, 0.0000, 0.0000
1.8840, -0.1177, -0.0785, -9.6105, -0.0051, 0.0083, -0.0032, -0.0333, 0.0069, -0.0951, 0.2428, -0.0076, -0.1057, 220, 115292, 0.0000, 0.0000, 0.0000, 0.0000
1.9040, -0.1177, -0.0785, -9.6105, -0.0051, 0.0083, -0.0032, -0.0333, 0.0069, -0.0951, 0.2429, -0.0076, -0.1057, 221, 115292, 0.0000, 0.0000, 0.0000, 0.0000
1.9240, -0.1177, -0.0785, -9.6105, -0.0051, 0.0083, -0.0032, -0.0332, 0.0069, -0.0952, 0.2429, -0.0077, -0.1056, 222, 115292, 0.0000, 0.0000, 0.0000, 0.0000
1.9440, -0.1177, -0.0785, -9.6105, -0.0051, 0.0083, -0.0032, -0.0333, 0.0069, -0.0951, 0.2428, -0.0075, -0.1057, 223, 115292, 0.0000, 0.0000, 0.0000, 0.0000
1.9640, -0.1177, -0.0785, -9.6105, -0.0051, 0.0083, -0.0032, -0.0332, 0.0069, -0.0952, 0.2429, -0.0077, -0.1055, 224, 115292, 0.0000, 0.0000, 0.0000, 0.0000
1.9840, -0.1177, -0.0785, -9.6105, -0.0051, 0.0083, -0.0032, -0.0333, 0.0069, -0.0951, 0.2429, -0.0076, -0.1059, 225, 115292, 0.0000, 0.0000, 0.0000, 0.0000
2.0040, -0.1177, -0.0785, -9.6105, -0.0051, 0.0083, -0.0032, -0.0332, 0.0069, -0.0952, 0.2429, -0.0076, -0.1057, 226, 115292, 0.0000, 0.0000, 0.0000, 0.0000
2.0240, -0.1177, -0.0785, -9.6105, -0.0051, 0.0083, -0.0032, -0.0332, 0.0069, -0.0952, 0.2428, -0.0077, -0.1057, 227, 115292, 0.0000, 0.0000, 0.0000, 0.0000
2.0440, -0.1177, -0.0785, -9.6105, -0.0051, 0.0083, -0.0032, -0.0333, 0.0070, -0.0951, 0.2423, -0.0074, -0.1054, 228, 115292, 0.0000, 0.0000, 0.0000, 0.0000
2.0640, -0.1177, -0.0785, -9.6105, -0.0051, 0.0083, -0.0032, -0.0330, 0.0068, -0.0951, 0.2446, -0.0078, -0.1067, 229, 115292, 0.0000, 0.0000, 0.0000, 0.0000
2.0840, -0.1177, -0.0785, -9.6105, -0.0051, 0.0083, -0.0032, -0.0332, 0.0071, -0.0951, 0.2429, -0.0073, -0.1063, 230, 115292, 0.0000, 0.0000, 0.0000, 0.0000
2.1040, -0.1177, -0.0785, -9.6105, -0.0051, 0.0083, -0.0032, -0.0332, 0.0068, -0.0952, 0.2430, -0.0078, -0.1057, 231, 115292, 0.0000, 0.0000, 0.0000, 0.0000
2.1240, -0.1177, -0.0785, -9.6105, -0.0051, 0.0083, -0.0032, -0.0333, 0.0070, -0.0951, 0.2438, -0.0081, -0.1065, 232, 115292, 0.0000, 0.0000, 0.0000, 0.0000
2.1440, -0.1177, -0.0785, -9.6105, -0.0051, 0.0083, -0.0032, -0.0332, 0.0069, -0.0952, 0.2437, -0.0079, -0.1059, 233, 115292, 0.0000, 0.0000, 0.0000, 0.0000
2.1640, -0.1177, -0.0785, -9.6105, -0.0051, 0.0083, -0.0032, -0.0332, 0.0069, -0.0952, 0.2431, -0.0079, -0.1060, 234, 115292, 0.0000, 0.0000, 0.0000, 0.0000
2.1840, -0.1177, -0.0785, -9.6105, -0.0051, 0.0083, -0.0032, -0.0333, 0.0069, -0.0952, 0.2429, -0.0079, -0.1064, 235, 115292, 0.0000, 0.0000, 0.0000, 0.0000
2.2040, -0.1177, -0.0785, -9.6105, -0.0051, 0.0083, -0.0032, -0.0331, 0.0069, -0.0953, 0.2436, -0.0080, -0.1052, 236, 115292, 0.0000, 0.0000, 0.0000, 0.0000
2.2240, -0.1177, -0.0785, -9.6105, -0.0051, 0.0083, -0.0032, -0.0333, 0.0069, -0.0951, 0.2435, -0.0080, -0.1063, 237, 115292, 0.0000, 0.0000, 0.0000, 0.0000
2.2450, -0.1177, -0.0785, -9.6105, -0.0051, 0.0083, -0.0032, -0.0333, 0.0069, -0.0954, 0.2432, -0.0078, -0.1059, 238, 115292, 0.0000, 0.0000, 0.0000, 0.0000
2.2650, -0.1177, -0.0785, -9.6105, -0.0051, 0.0083, -0.0032, -0.0332, 0.0069, -0.0952, 0.2431, -0.0080, -0.1057, 239, 115292, 0.0000, 0.0000, 0.0000, 0.0000
2.2850, -0.1177, -0.0785, -9.6105, -0.0051, 0.0083, -0.0032, -0.0333, 0.0069, -0.0953, 0.2435, -0.0080, -0.1060, 240, 115292, 0.0000, 0.0000, 0.0000, 0.0000
2.3050, -0.1177, -0.0785, -9.6105, -0.0051, 0.0083, -0.0032, -0.0332, 0.0069, -0.0953, 0.2435, -0.0081, -0.1058, 241, 115292, 0.0000, 0.0000, 0.0000, 0.0000
2.3250, -0.1177, -0.0785, -9.6105, -0.0051, 0.0083, -0.0032, -0.0333, 0.0069, -0.0952, 0.2432, -0.0081, -0.1062, 242, 115292, 0.0000, 0.0000, 0.0000, 0.0000
2.3450, -0.1177, -0.0785, -9.6105, -0.0051, 0.0083, -0.0032, -0.0332, 0.0070, -0.0953, 0.2433, -0.0081, -0.1060, 243, 115292, 0.0000, 0.0000, 0.0000, 0.0000
2.3650, -0.1177, -0.0785, -9.6105, -0.0051, 0.0083, -0.0032, -0.0332, 0.0069, -0.0952, 0.2435, -0.0082, -0.1063, 244, 115292, 0.0000, 0.0000, 0.0000, 0.0000
2.3850, -0.1177, -0.0785, -9.6105, -0.0051, 0.0083, -0.0032, -0.0332, 0.0070, -0.0953, 0.2433, -0.0083, -0.1059, 245, 115292, 0.0000, 0.0000, 0.0000, 0.0000
2.4050, -0.1177, -0.0785, -9.6105, -0.0051, 0.0083, -0.0032, -0.0331, 0.0069, -0.0953, 0.2432, -0.0080, -0.1063, 246, 115292, 0.0000, 0.0000, 0.0000, 0.0000
2.4250, -0.1177, -0.0785, -9.6105, -0.0051, 0.0083, -0.0032, -0.0332, 0.0070, -0.0952, 0.2432, -0.0083, -0.1058, 247, 115292, 0.0000, 0.0000, 0.0000, 0.0000
2.4450, -0.1177, -0.0785, -9.6105, -0.0051, 0.0083, -0.0032, -0.0332, 0.0069, -0.0954, 0.2435, -0.0080, -0.1063, 248, 115292, 0.0000, 0.0000, 0.0000, 0.0000
2.4650, -0.1177, -0.0785, -9.6105, -0.0051, 0.0083, -0.0032, -0.0332, 0.0069, -0.0953, 0.2432, -0.0083, -0.1058, 249, 115292, 0.0000, 0.0000, 0.0000, 0.0000
2.4850, -0.1177, -0.0785, -9.6105, -0.0051, 0.0083, -0.0032, -0.0332, 0.0070, -0.0953, 0.2432, -0.0081, -0.1062, 250, 115292, 0.0000, 0.0000, 0.0000, 0.0000
2.5050, -0.1177, -0.0785, -9.6105, -0.0051, 0.0083, -0.0032, -0.0333, 0.0069, -0.0953, 0.2434, -0.0082, -0.1057, 251, 115292, 0.0000, 0.0000, 0.0000, 0.0000
2.5250, -0.1177, -0.0785, -9.6105, -0.0051, 0.0083, -0.0032, -0.0333, 0.0069, -0.0952, 0.2434, -0.0081, -0.1063, 252, 115292, 0.0000, 0.0000, 0.0000, 0.0000
2.5450, -0.1177, -0.0785, -9.6105, -0.0051, 0.0083, -0.0032, -0.0332, 0.0069, -0.0954, 0.2435, -0.0082, -0.1059, 253, 115292, 0.0000, 0.0000, 0.0000, 0.0000
2.5650, -0.1177, -0.0785, -9.6105, -0.0051, 0.0083, -0.0032, -0.0332, 0.0070, -0.0952, 0.2433, -0.0082, -0.1064, 254, 115292, 0.0000, 0.0000, 0.0000, 0.0000
2.5850, -0.1177, -0.0785, -9.6105, -0.0051, 0.0083, -0.0032, -0.0331, 0.0069, -0.0953, 0.2436, -0.0081, -0.1061, 255, 115292, 0.0000, 0.0000, 0.0000, 0.0000
2.6050, -0.1177, -0.0785, -9.6105, -0.0051, 0.0083, -0.0032, -0.0332, 0.0069, -0.0952, 0.2434, -0.0081, -0.1058, 256, 115292, 0.0000, 0.0000, 0.0000, 0.0000
2.6250, -0.1177, -0.0785, -9.6105, -0.0051, 0.0083, -0.0032, -0.0332, 0.0070, -0.0954, 0.2434, -0.0080, -0.1059, 257, 115292, 0.0000, 0.0000, 0.0000, 0.0000
2.6450, -0.1177, -0.0785, -9.6105, -0.0051, 0.0083, -0.0032, -0.0332, 0.0070, -0.0952, 0.2431, -0.0083, -0.1060, 258, 115292, 0.0000, 0.0000, 0.0000, 0.0000
2.6650, -0.1177, -0.0785, -9.6105, -0.0051, 0.0083, -0.0032, -0.0333, 0.0068, -0.0953, 0.2434, -0.0079, -0.1059, 259, 115292, 0.0000, 0.0000, 0.0000, 0.0000
2.6850, -0.1177, -0.0785, -9.6105, -0.0051, 0.0083, -0.0032, -0.0332, 0.0070, -0.0953, 0.2433, -0.0082, -0.1060, 260, 115292, 0.0000, 0.0000, 0.0000, 0.0000
2.7050, -0.1177, -0.0785, -9.6105, -0.0051, 0.0083, -0.0032, -0.0333, 0.0068, -0.0953, 0.2433, -0.0080, -0.1061, 261, 115292, 0.0000, 0.0000, 0.0000, 0.0000
2.7250, -0.1177, -0.0785, -9.6105, -0.0051, 0.0083, -0.0032, -0.0331, 0.0070, -0.0952, 0.2434, -0.0081, -0.1065, 262, 115292, 0.0000, 0.0000, 0.0000, 0.0000
2.7450, -0.1177, -0.0785, -9.6105, -0.0051, 0.0083, -0.0032, -0.0331, 0.0069, -0.0953, 0.2435, -0.0081, -0.1057, 263, 115292, 0.0000, 0.0000, 0.0000, 0.0000
2.7650, -0.1177, -0.0785, -9.6105, -0.0051, 0.0083, -0.0032, -0.0333, 0.0070, -0.0953, 0.2432, -0.0080, -0.1061, 264, 115292, 0.0000, 0.0000, 0.0000, 0.0000
2.7850, -0.1177, -0.0785, -9.6105, -0.0051, 0.0083, -0.0032, -0.0332, 0.0070, -0.0953, 0.2433, -0.0083, -0.1061, 265, 115292, 0.0000, 0.0000, 0.0000, 0.0000
2.8050, -0.1177, -0.0785, -9.6105, -0.0051, 0.0083, -0.0032, -0.0333, 0.0070, -0.0952, 0.2433, -0.0081, -0.1062, 266, 115292, 0.0000, 0.0000, 0.0000, 0.0000
2.8250, -0.1177, -0.0785, -9.6105, -0.0051, 0.0083, -0.0032, -0.0332, 0.0070, -0.0954, 0.2433, -0.0081, -0.1061, 267, 115292, 0.0000, 0.0000, 0.0000, 0.0000
2.8450, -0.1177, -0.0785, -9.6105, -0.0051, 0.0083, -0.0032, -0.0332, 0.0070, -0.0954, 0.2433, -0.0081, -0.1060, 268, 115292, 0.0000, 0.0000, 0.0000, 0.0000
2.8650, -0.1177, -0.0785, -9.6105, -0.0051, 0.0083, -0.0032, -0.0332, 0.0070, -0.0957, 0.2433, -0.0086, -0.1064, 269, 115292, 0.0000, 0.0000, 0.0000, 0.0000
2.8850, -0.1177, -0.0785, -9.6105, -0.0051, 0.0083, -0.0032, -0.0330, 0.0070, -0.0966, 0.2434, -0.0107, -0.1079, 270, 115292, 0.0000, 0.0000, 0.0000, 0.0000
2.9050, -0.1177, -0.0785, -9.6105, -0.0051, 0.0083, -0.0032, -0.0330, 0.0070, -0.0976, 0.2427, -0.0134, -0.1096, 271, 115292, 0.0000, 0.0000, 0.0000, 0.0000
2.9250, -0.1177, -0.0785, -9.6105, -0.0051, 0.0083, -0.0032, -0.0328, 0.0071, -0.0985, 0.2392, -0.0155, -0.1114, 272, 115292, 0.0000, 0.0000, 0.0000, 0.0000
2.9450, -0.1177, -0.0785, -9.6105, -0.0051, 0.0083, -0.0032, -0.0326, 0.0073, -0.0993, 0.2335, -0.0177, -0.1129, 273, 115292, 0.0000, 0.0000, 0.0000, 0.0000
2.9650, -0.1177, -0.0785, -9.6105, -0.0051, 0.0083, -0.0032, -0.0323, 0.0074, -0.1007, 0.2286, -0.0186, -0.1134, 274, 115292, 0.0000, 0.0000, 0.0000, 0.0000
2.9850, -0.1177, -0.0785, -9.6105, -0.0051, 0.0083, -0.0032, -0.0322, 0.0078, -0.1028, 0.2229, -0.0195, -0.1111, 275, 115292, 0.0000, 0.0000, 0.0000, 0.0000
3.0050, -0.1177, -0.0785, -9.6105, -0.0051, 0.0083, -0.0032, -0.0320, 0.0082, -0.1046, 0.2165, -0.0203, -0.1109, 276, 115292, 0.0000, 0.0000, 0.0000, 0.0000
3.0250, -0.1177, -0.0785, -9.6105, -0.0051, 0.0083, -0.0032, -0.0320, 0.0085, -0.1075, 0.2101, -0.0200, -0.1111, 277, 115292, 0.0000, 0.0000, 0.0000, 0.0000
3.0450, -0.1177, -0.0785, -9.6105, -0.0051, 0.0083, -0.0032, -0.0319, 0.0089, -0.1106, 0.2038, -0.0188, -0.1114, 278, 115292, 0.0000, 0.0000, 0.0000, 0.0000
3.0650, -0.1177, -0.0785, -9.6105, -0.0051, 0.0083, -0.0032, -0.0314, 0.0092, -0.1142, 0.1972, -0.0187, -0.1119, 279, 115292, 0.0000, 0.0000, 0.0000, 0.0000
3.0850, -0.1177, -0.0785, -9.6105, -0.0051, 0.0083, -0.0032, -0.0312, 0.0097, -0.1183, 0.1898, -0.0198, -0.1134, 280, 115292, 0.0000, 0.0000, 0.0000, 0.0000
3.1050, -0.1177, -0.0785, -9.6105, -0.0051, 0.0083, -0.0032, -0.0307, 0.0102, -0.1228, 0.1830, -0.0202, -0.1141, 281, 115292, 0.0000, 0.0000, 0.0000, 0.0000
3.1250, -0.1177, -0.0785, -9.6105, -0.0051, 0.0083, -0.0032, -0.0305, 0.0109, -0.1274, 0.1756, -0.0210, -0.1150, 282, 115292, 0.0000, 0.0000, 0.0000, 0.0000
3.1450, -0.1177, -0.0785, -9.6105, -0.0051, 0.0083, -0.0032, -0.0300, 0.0115, -0.1319, 0.1681, -0.0207, -0.1141, 283, 115292, 0.0000, 0.0000, 0.0000, 0.0000
3.1650, -0.1177, -0.0785, -9.6105, -0.0051, 0.0083, -0.0032, -0.0296, 0.0121, -0.1368, 0.1609, -0.0195, -0.1149, 284, 115292, 0.0000, 0.0000, 0.0000, 0.0000
3.1850, -0.1177, -0.0785, -9.6105, -0.0051, 0.0083, -0.0032, -0.0290, 0.0129, -0.1413, 0.1537, -0.0197, -0.1150, 285, 115292, 0.0000, 0.0000, 0.0000, 0.0000
3.2050, -0.1177, -0.0785, -9.6105, -0.0051, 0.0083, -0.0032, -0.0284, 0.0136, -0.1459, 0.1463, -0.0197, -0.1158, 286, 115292, 0.0000, 0.0000, 0.0000, 0.0000
3.2250, -0.1177, -0.0785, -9.6105, -0.0051, 0.0083, -0.0032, -0.0278, 0.0145, -0.1501, 0.1395, -0.0196, -0.1163, 287, 115292, 0.0000, 0.0000, 0.0000, 0.0000
3.2450, -0.1177, -0.0785, -9.6105, -0.0051, 0.0083, -0.0032, -0.0273, 0.0153, -0.1542, 0.1323, -0.0202, -0.1169, 288, 115292, 0.0000, 0.0000, 0.0000, 0.0000
3.2650, -0.1177, -0.0785, -9.6105, -0.0051, 0.0083, -0.0032, -0.0266, 0.0161, -0.1582, 0.1264, -0.0190, -0.1188, 289, 115292, 0.0000, 0.0000, 0.0000, 0.0000
3.2850, -0.1177, -0.0785, -9.6105, -0.0051, 0.0083, -0.0032, -0.0261, 0.0168, -0.1616, 0.1194, -0.0184, -0.1195, 290, 115292, 0.0000, 0.0000, 0.0000, 0.0000
3.3050, -0.1177, -0.0785, -9.6105, -0.0051, 0.0083, -0.0032, -0.0251, 0.0177, -0.1649, 0.1131, -0.0182, -0.1197, 291, 115292, 0.0000, 0.0000, 0.0000, 0.0000
3.3250, -0.1177, -0.0785, -9.6105, -0.0051, 0.0083, -0.0032, -0.0243, 0.0185, -0.1677, 0.1068, -0.0173, -0.1202, 292, 115292, 0.0000, 0.0000, 0.0000, 0.0000
3.3450, -0.1177, -0.0785, -9.6105, -0.0051, 0.0083, -0.0032, -0.0236, 0.0192, -0.1703, 0.1009, -0.0174, -0.1204, 293, 115292, 0.0000, 0.0000, 0.0000, 0.0000
3.3650, -0.1177, -0.0785, -9.6105, -0.0051, 0.0083, -0.0032, -0.0227, 0.0200, -0.1725, 0.0951, -0.0170, -0.1211, 294, 115292, 0.0000, 0.0000, 0.0000, 0.0000
3.3850, -0.1177, -0.0785, -9.6105, -0.0051, 0.0083, -0.0032, -0.0218, 0.0209, -0.1745, 0.0895, -0.0174, -0.1206, 295, 115292, 0.0000, 0.0000, 0.0000, 0.0000
3.4050, -0.1177, -0.0785, -9.6105, -0.0051, 0.0083, -0.0032, -0.0208, 0.0217, -0.1765, 0.0840, -0.0177, -0.1200, 296, 115292, 0.0000, 0.0000, 0.0000, 0.0000
3.4250, -0.1177, -0.0785, -9.6105, -0.0051, 0.0083, -0.0032, -0.0200, 0.0225, -0.1780, 0.0793, -0.0172, -0.1199, 297, 115292, 0.0000, 0.0000, 0.0000, 0.0000
3.4450, -0.1177, -0.0785, -9.6105, -0.0051, 0.0083, -0.0032, -0.0191, 0.0235, -0.1797, 0.0742, -0.0163, -0.1200, 298, 115292, 0.0000, 0.0000, 0.0000, 0.0000
3.4650, -0.1177, -0.0785, -9.6105, -0.0051, 0.0083, -0.0032, -0.0182, 0.0242, -0.1812, 0.0696, -0.0156, -0.1193, 299, 115292, 0.0000, 0.0000, 0.0000, 0.0000
3.4850, -0.1177, -0.0785, -9.6105, -0.0051, 0.0083, -0.0032, -0.0174, 0.0250, -0.1825, 0.0654, -0.0146, -0.1189, 300, 115292, 0.0000, 0.0000, 0.0000, 0.0000
3.5050, -0.1177, -0.0785, -9.6105, -0.0051, 0.0083, -0.0032, -0.0164, 0.0258, -0.1840, 0.0611, -0.0135, -0.1181, 301, 115292, 0.0000, 0.0000, 0.0000, 0.0000
3.5250, -0.1177, -0.0785, -9.6105, -0.0051, 0.0083, -0.0032, -0.0155, 0.0267, -0.1851, 0.0573, -0.0131, -0.1183, 302, 115292, 0.0000, 0.0000, 0.0000, 0.0000
3.5450, -0.1177, -0.0785, -9.6105, -0.0051, 0.0083, -0.0032, -0.0145, 0.0275, -0.1866, 0.0531, -0.0128, -0.1188, 303, 115292, 0.0000, 0.0000, 0.0000, 0.0000
3.5650, -0.1177, -0.0785, -9.6105, -0.0051, 0.0083, -0.0032, -0.0136, 0.0283, -0.1876, 0.0496, -0.0127, -0.1182, 304, 115292, 0.0000, 0.0000, 0.0000, 0.0000
3.5850, -0.1177, -0.0785, -9.6105, -0.0051, 0.0083, -0.0032, -0.0125, 0.0291, -0.1888, 0.0460, -0.0128, -0.1174, 305, 115292, 0.0000, 0.0000, 0.0000, 0.0000
3.6050, -0.1177, -0.0785, -9.6105, -0.0051, 0.0083, -0.0032, -0.0116, 0.0299, -0.1899, 0.0429, -0.0129, -0.1175, 306, 115292, 0.0000, 0.0000, 0.0000, 0.0000
3.6250, -0.1177, -0.0785, -9.6105, -0.0051, 0.0083, -0.0032, -0.0107, 0.0305, -0.1907, 0.0401, -0.0127, -0.1186, 307, 115292, 0.0000, 0.0000, 0.0000, 0.0000
3.6450, -0.1177, -0.0785, -9.6105, -0.0051, 0.0083, -0.0032, -0.0096, 0.0312, -0.1914, 0.0371, -0.0116, -0.1184, 308, 115292, 0.0000, 0.0000, 0.0000, 0.0000
3.6650, -0.1177, -0.0785, -9.6105, -0.0051, 0.0083, -0.0032, -0.0088, 0.0319, -0.1920, 0.0346, -0.0106, -0.1193, 309, 115292, 0.0000, 0.0000, 0.0000, 0.0000
3.6850, -0.1177, -0.0785, -9.6105, -0.0051, 0.0083, -0.0032, -0.0077, 0.0328, -0.1926, 0.0320, -0.0099, -0.1189, 310, 115292, 0.0000, 0.0000, 0.0000, 0.0000
3.7050, -0.1177, -0.0785, -9.6105, -0.0051, 0.0083, -0.0032, -0.0069, 0.0335, -0.1928, 0.0294, -0.0093, -0.1180, 311, 115292, 0.0000, 0.0000, 0.0000, 0.0000
3.7250, -0.1177, -0.0785, -9.6105, -0.0051, 0.0083, -0.0032, -0.0060, 0.0342, -0.1932, 0.0271, -0.0080, -0.1187, 312, 115292, 0.0000, 0.0000, 0.0000, 0.0000
3.7450, -0.1177, -0.0785, -9.6105, -0.0051, 0.0083, -0.0032, -0.0050, 0.0349, -0.1933, 0.0249, -0.0067, -0.1187, 313, 115292, 0.0000, 0.0000, 0.0000, 0.0000
3.7650, -0.1177, -0.0785, -9.6105, -0.0051, 0.0083, -0.0032, -0.0042, 0.0355, -0.1933, 0.0234, -0.0060, -0.1183, 314, 115292, 0.0000, 0.0000, 0.0000, 0.0000
3.7850, -0.1177, -0.0785, -9.6105, -0.0051, 0.0083, -0.0032, -0.0033, 0.0362, -0.1935, 0.0216, -0.0060, -0.1182, 315, 115292, 0.0000, 0.0000, 0.0000, 0.0000
3.8050, -0.1177, -0.0785, -9.6105, -0.0051, 0.0083, -0.0032, -0.0025, 0.0369, -0.1935, 0.0201, -0.0062, -0.1179, 316, 115292, 0.0000, 0.0000, 0.0000, 0.0000
3.8250, -0.1177, -0.0785, -9.6105, -0.0051, 0.0083, -0.0032, -0.0016, 0.0376, -0.1937, 0.0184, -0.0068, -0.1179, 317, 115292, 0.0000, 0.0000, 0.0000, 0.0000
3.8450, -0.1177, -0.0785, -9.6105, -0.0051, 0.0083, -0.0032, -0.0008, 0.0383, -0.1939, 0.0169, -0.0073, -0.1188, 318, 115292, 0.0000, 0.0000, 0.0000, 0.0000
3.8650, -0.1177, -0.0785, -9.6105, -0.0051, 0.0083, -0.0032, -0.0000, 0.0389, -0.1942, 0.0155, -0.0075, -0.1191, 319, 115292, 0.0000, 0.0000, 0.0000, 0.0000
3.8850, -0.1177, -0.0785, -9.6105, -0.0051, 0.0083, -0.0032, 0.0006, 0.0394, -0.1947, 0.0144, -0.0076, -0.1197, 320, 115292, 0.0000, 0.0000, 0.0000, 0.0000
3.9050, -0.1177, -0.0785, -9.6105, -0.0051, 0.0083, -0.0032, 0.0013, 0.0403, -0.1951, 0.0136, -0.0070, -0.1203, 321, 115292, 0.0000, 0.0000, 0.0000, 0.0000
3.9250, -0.1177, -0.0785, -9.6105, -0.0051, 0.0083, -0.0032, 0.0019, 0.0408, -0.1960, 0.0122, -0.0067, -0.1198, 322, 115292, 0.0000, 0.0000, 0.0000, 0.0000
3.9450, -0.1177, -0.0785, -9.6105, -0.0051, 0.0083, -0.0032, 0.0023, 0.0416, -0.1968, 0.0117, -0.0066, -0.1197, 323, 115292, 0.0000, 0.0000, 0.0000, 0.0000
3.9650, -0.1177, -0.0785, -9.6105, -0.0051, 0.0083, -0.0032, 0.0029, 0.0422, -0.1978, 0.0108, -0.0067, -0.1206, 324, 115292, 0.0000, 0.0000, 0.0000, 0.0000
3.9850, -0.1177, -0.0785, -9.6105, -0.0051, 0.0083, -0.0032, 0.0033, 0.0429, -0.1986, 0.0104, -0.0061, -0.1206, 325, 115292, 0.0000, 0.0000, 0.0000, 0.0000
4.0050, -0.1177, -0.0785, -9.6105, -0.0051, 0.0083, -0.0032, 0.0038, 0.0435, -0.1993, 0.0100, -0.0056, -0.1214, 326, 115292, 0.0000, 0.0000, 0.0000, 0.0000
4.0250, -0.1177, -0.0785, -9.6105, -0.0051, 0.0083, -0.0032, 0.0044, 0.0441, -0.2001, 0.0095, -0.0057, -0.1227, 327, 115292, 0.0000, 0.0000, 0.0000, 0.0000
4.0450, -0.1177, -0.0785, -9.6105, -0.0051, 0.0083, -0.0032, 0.0047, 0.0447, -0.2007, 0.0091, -0.0058, -0.1238, 328, 115292, 0.0000, 0.0000, 0.0000, 0.0000
4.0650, -0.1177, -0.0785, -9.6105, -0.0051, 0.0083, -0.0032, 0.0053, 0.0452, -0.2015, 0.0084, -0.0062, -0.1242, 329, 115292, 0.0000, 0.0000, 0.0000, 0.0000
4.0870, -0.1177, -0.0785, -9.6105, -0.0051, 0.0083, -0.0032, 0.0057, 0.0457, -0.2018, 0.0084, -0.0071, -0.1237, 330, 115292, 0.0000, 0.0000, 0.0000, 0.0000
4.1070, -0.1177, -0.0785, -9.6105, -0.0051, 0.0083, -0.0032, 0.0061, 0.0462, -0.2022, 0.0081, -0.0080, -0.1243, 331, 115292, 0.0000, 0.0000, 0.0000, 0.0000
4.1270, -0.1177, -0.0785, -9.6105, -0.0051, 0.0083, -0.0032, 0.0066, 0.0466, -0.2026, 0.0077, -0.0098, -0.1253, 332, 115292, 0.0000, 0.0000, 0.0000, 0.0000
4.1470, -0.1177, -0.0785, -9.6105, -0.0051, 0.0083, -0.0032, 0.0070, 0.0470, -0.2026, 0.0073, -0.0117, -0.1266, 333, 115292, 0.0000, 0.0000, 0.0000, 0.0000
4.1670, -0.1177, -0.0785, -9.6105, -0.0051, 0.0083, -0.0032, 0.0076, 0.0473, -0.2030, 0.0072, -0.0129, -0.1281, 334, 115292, 0.0000, 0.0000, 0.0000, 0.0000
4.1870, -0.1177, -0.0785, -9.6105, -0.0051, 0.0083, -0.0032, 0.0080, 0.0478, -0.2030, 0.0069, -0.0143, -0.1287, 335, 115292, 0.0000, 0.0000, 0.0000, 0.0000
4.2070, -0.1177, -0.0785, -9.6105, -0.0051, 0.0083, -0.0032, 0.0084, 0.0482, -0.2031, 0.0069, -0.0148, -0.1289, 336, 115292, 0.0000, 0.0000, 0.0000, 0.0000
4.2270, -0.1177, -0.0785, -9.6105, -0.0051, 0.0083, -0.0032, 0.0087, 0.0485, -0.2034, 0.0069, -0.0151, -0.1289, 337, 115292, 0.0000, 0.0000, 0.0000, 0.0000
4.2390, -0.1177, -0.0785, -9.6105, -0.0051, 0.0083, -0.0032, 0.0091, 0.0488, -0.2034, 0.0069, -0.0152, -0.1290, 338, 115292, 0.0000, 0.0000, 0.0000, 0.0000
4.2590, -0.1177, -0.0785, -9.6105, -0.0051, 0.0083, -0.0032, 0.0095, 0.0490, -0.2038, 0.0068, -0.0157, -0.1298, 339, 115292, 0.0000, 0.0000, 0.0000, 0.0000
4.2790, -0.1177, -0.0785, -9.6105, -0.0051, 0.0083, -0.0032, 0.0099, 0.0492, -0.2039, 0.0070, -0.0154, -0.1294, 340, 115292, 0.0000, 0.0000, 0.0000, 0.0000
4.2990, -0.1177, -0.0785, -9.6105, -0.0051, 0.0083, -0.0032, 0.0103, 0.0494, -0.2043, 0.0073, -0.0147, -0.1295, 341, 115292, 0.0000, 0.0000, 0.0000, 0.0000
4.3190, -0.1177, -0.0785, -9.6105, -0.0051, 0.0083, -0.0032, 0.0106, 0.0497, -0.2044, 0.0074, -0.0141, -0.1297, 342, 115292, 0.0000, 0.0000, 0.0000, 0.0000
4.3390, -0.1177, -0.0785, -9.6105, -0.0051, 0.0083, -0.0032, 0.0110, 0.0499, -0.2047, 0.0074, -0.0144, -0.1294, 343, 115292, 0.0000, 0.0000, 0.0000, 0.0000
4.3590, -0.1177, -0.0785, -9.6105, -0.0051, 0.0083, -0.0032, 0.0113, 0.0499, -0.2050, 0.0072, -0.0157, -0.1291, 344, 115292, 0.0000, 0.0000, 0.0000, 0.0000
4.3790, -0.1177, -0.0785, -9.6105, -0.0051, 0.0083, -0.0032, 0.0117, 0.0501, -0.2051, 0.0070, -0.0164, -0.1280, 345, 115292, 0.0000, 0.0000, 0.0000, 0.0000
4.4010, -0.1177, -0.0785, -9.6105, -0.0051, 0.0083, -0.0032, 0.0121, 0.0503, -0.2055, 0.0074, -0.0164, -0.1269, 346, 115292, 0.0000, 0.0000, 0.0000, 0.0000
4.4210, -0.1177, -0.0785, -9.6105, -0.0051, 0.0083, -0.0032, 0.0124, 0.0504, -0.2057, 0.0072, -0.0155, -0.1262, 347, 115292, 0.0000, 0.0000, 0.0000, 0.0000
4.4410, -0.1177, -0.0785, -9.6105, -0.0051, 0.0083, -0.0032, 0.0128, 0.0505, -0.2063, 0.0072, -0.0155, -0.1256, 348, 115292, 0.0000, 0.0000, 0.0000, 0.0000
4.4610, -0.1177, -0.0785, -9.6105, -0.0051, 0.0083, -0.0032, 0.0134, 0.0503, -0.2068, 0.0073, -0.0161, -0.1255, 349, 115292, 0.0000, 0.0000, 0.0000, 0.0000
4.4800, -0.1177, -0.0785, -9.6105, -0.0051, 0.0083, -0.0032, 0.0139, 0.0505, -0.2073, 0.0075, -0.0170, -0.1256, 350, 115292, 0.0000, 0.0000, 0.0000, 0.0000
4.5000, -0.1177, -0.0785, -9.6105, -0.0051, 0.0083, -0.0032, 0.0144, 0.0504, -0.2079, 0.0077, -0.0180, -0.1257, 351, 115292, 0.0000, 0.0000, 0.0000, 0.0000
4.5210, -0.1177, -0.0785, -9.6105, -0.0051, 0.0083, -0.0032, 0.0148, 0.0505, -0.2085, 0.0075, -0.0185, -0.1256, 352, 115292, 0.0000, 0.0000, 0.0000, 0.0000
4.5410, -0.1177, -0.0785, -9.6105, -0.0051, 0.0083, -0.0032, 0.0153, 0.0505, -0.2093, 0.0077, -0.0188, -0.1248, 353, 115292, 0.0000, 0.0000, 0.0000, 0.0000
4.5610, -0.1177, -0.0785, -9.6105, -0.0051, 0.0083, -0.0032, 0.0157, 0.0504, -0.2098, 0.0079, -0.0194, -0.1246, 354, 115292, 0.0000, 0.0000, 0.0000, 0.0000
4.5800, -0.1177, -0.0785, -9.6105, -0.0051, 0.0083, -0.0032, 0.0163, 0.0505, -0.2105, 0.0077, -0.0199, -0.1244, 355, 115292, 0.0000, 0.0000, 0.0000, 0.0000
4.6000, -0.1177, -0.0785, -9.6105, -0.0051, 0.0083, -0.0032, 0.0170, 0.0504, -0.2114, 0.0080, -0.0206, -0.1252, 356, 115292, 0.0000, 0.0000, 0.0000, 0.0000
4.6210, -0.1177, -0.0785, -9.6105, -0.0051, 0.0083, -0.0032, 0.0175, 0.0503, -0.2119, 0.0083, -0.0212, -0.1245, 357, 115292, 0.0000, 0.0000, 0.0000, 0.0000
4.6410, -0.1177, -0.0785, -9.6105, -0.0051, 0.0083, -0.0032, 0.0183, 0.0502, -0.2129, 0.0089, -0.0217, -0.1245, 358, 115292, 0.0000, 0.0000, 0.0000, 0.0000
4.6600, -0.1177, -0.0785, -9.6105, -0.0051, 0.0083, -0.0032, 0.0187, 0.0502, -0.2135, 0.0095, -0.0210, -0.1237, 359, 115292, 0.0000, 0.0000, 0.0000, 0.0000
4.6800, -0.1177, -0.0785, -9.6105, -0.0051, 0.0083, -0.0032, 0.0195, 0.0501, -0.2144, 0.0100, -0.0203, -0.1233, 360, 115292, 0.0000, 0.0000, 0.0000, 0.0000
4.7030, -0.1177, -0.0785, -9.6105, -0.0051, 0.0083, -0.0032, 0.0201, 0.0501, -0.2150, 0.0103, -0.0202, -0.1236, 361, 115292, 0.0000, 0.0000, 0.0000, 0.0000
4.7230, -0.1177, -0.0785, -9.6105, -0.0051, 0.0083, -0.0032, 0.0208, 0.0500, -0.2158, 0.0105, -0.0197, -0.1224, 362, 115292, 0.0000, 0.0000, 0.0000, 0.0000
4.7430, -0.1177, -0.0785, -9.6105, -0.0051, 0.0083, -0.0032, 0.0216, 0.0500, -0.2166, 0.0107, -0.0194, -0.1210, 363, 115292, 0.0000, 0.0000, 0.0000, 0.0000
4.7630, -0.1177, -0.0785, -9.6105, -0.0051, 0.0083, -0.0032, 0.0222, 0.0500, -0.2171, 0.0112, -0.0193, -0.1200, 364, 115292, 0.0000, 0.0000, 0.0000, 0.0000
4.7830, -0.1177, -0.0785, -9.6105, -0.0051, 0.0083, -0.0032, 0.0230, 0.0499, -0.2179, 0.0112, -0.0186, -0.1193, 365, 115292, 0.0000, 0.0000, 0.0000, 0.0000
4.8030, -0.1177, -0.0785, -9.6105, -0.0051, 0.0083, -0.0032, 0.0237, 0.0498, -0.2184, 0.0118, -0.0185, -0.1193, 366, 115292, 0.0000, 0.0000, 0.0000, 0.0000
4.8230, -0.1177, -0.0785, -9.6105, -0.0051, 0.0083, -0.0032, 0.0247, 0.0497, -0.2189, 0.0118, -0.0184, -0.1189, 367, 115292, 0.0000, 0.0000, 0.0000, 0.0000
4.8430, -0.1177, -0.0785, -9.6105, -0.0051, 0.0083, -0.0032, 0.0256, 0.0495, -0.2194, 0.0123, -0.0183, -0.1185, 368, 115292, 0.0000, 0.0000, 0.0000, 0.0000
4.8630, -0.1177, -0.0785, -9.6105, -0.0051, 0.0083, -0.0032, 0.0265, 0.0495, -0.2196, 0.0127, -0.0180, -0.1179, 369, 115292, 0.0000, 0.0000, 0.0000, 0.0000
4.8830, -0.1177, -0.0785, -9.6105, -0.0051, 0.0083, -0.0032, 0.0274, 0.0494, -0.2201, 0.0128, -0.0179, -0.1170, 370, 115292, 0.0000, 0.0000, 0.0000, 0.0000
4.9030, -0.1177, -0.0785, -9.6105, -0.0051, 0.0083, -0.0032, 0.0282, 0.0493, -0.2202, 0.0134, -0.0175, -0.1168, 371, 115292, 0.0000, 0.0000, 0.0000, 0.0000
4.9230, -0.1177, -0.0785, -9.6105, -0.0051, 0.0083, -0.0032, 0.0292, 0.0493, -0.2204, 0.0135, -0.0170, -0.1151, 372, 115292, 0.0000, 0.0000, 0.0000, 0.0000
4.9430, -0.1177, -0.0785, -9.6105, -0.0051, 0.0083, -0.0032, 0.0301, 0.0493, -0.2206, 0.0138, -0.0162, -0.1149, 373, 115292, 0.0000, 0.0000, 0.0000, 0.0000
4.9630, -0.1177, -0.0785, -9.6105, -0.0051, 0.0083, -0.0032, 0.0312, 0.0493, -0.2209, 0.0139, -0.0169, -0.1145, 374, 115292, 0.0000, 0.0000, 0.0000, 0.0000
4.9830, -0.1177, -0.0785, -9.6105, -0.0051, 0.0083, -0.0032, 0.0321, 0.0491, -0.2211, 0.0145, -0.0178, -0.1139, 375, 115292, 0.0000, 0.0000, 0.0000, 0.0000
5.0030, -0.1177, -0.0785, -9.6105, -0.0051, 0.0083, -0.0032, 0.0330, 0.0491, -0.2213, 0.0146, -0.0178, -0.1141, 376, 115292, 0.0000, 0.0000, 0.0000, 0.0000
5.0230, -0.1177, -0.0785, -9.6105, -0.0051, 0.0083, -0.0032, 0.0341, 0.0493, -0.2217, 0.0148, -0.0173, -0.1140, 377, 115292, 0.0000, 0.0000, -0.0010, 0.0000
5.0430, -0.1177, -0.0785, -9.6105, -0.0051, 0.0083, -0.0032, 0.0349, 0.0492, -0.2218, 0.0150, -0.0162, -0.1138, 378, 115292, 0.0000, 0.0000, -0.0077, 0.0000
5.0630, -0.1177, -0.0785, -9.6105, -0.0051, 0.0083, -0.0032, 0.0360, 0.0493, -0.2223, 0.0152, -0.0156, -0.1131, 379, 115292, 0.0000, 0.0000, -0.0143, 0.0000
5.0830, -0.1177, -0.0785, -9.6105, -0.0051, 0.0083, -0.0032, 0.0368, 0.0493, -0.2226, 0.0156, -0.0155, -0.1124, 380, 115292, 0.0000, 0.0000, -0.0210, 0.0000
5.1030, -0.1177, -0.0785, -9.6105, -0.0051, 0.0083, -0.0032, 0.0378, 0.0495, -0.2231, 0.0152, -0.0161, -0.1116, 381, 115292, 0.0000, 0.0000, -0.0277, 0.0000
5.1230, -0.1177, -0.0785, -9.6105, -0.0051, 0.0083, -0.0032, 0.0389, 0.0497, -0.2237, 0.0153, -0.0160, -0.1110, 382, 115292, 0.0000, 0.0000, -0.0343, 0.0000
5.1430, -0.1177, -0.0785, -9.6105, -0.0051, 0.0083, -0.0032, 0.0398, 0.0499, -0.2242, 0.0156, -0.0160, -0.1100, 383, 115292, 0.0000, 0.0000, -0.0410, 0.0000
5.1630, -0.1177, -0.0785, -9.6105, -0.0051, 0.0083, -0.0032, 0.0409, 0.0500, -0.2248, 0.0160, -0.0153, -0.1092, 384, 115292, 0.0000, 0.0000, -0.0477, 0.0000
5.1830, -0.1177, -0.0785, -9.6105, -0.0051, 0.0083, -0.0032, 0.0418, 0.0503, -0.2252, 0.0158, -0.0149, -0.1098, 385, 115292, 0.0000, 0.0000, -0.0543, 0.0000
5.2030, -0.1177, -0.0785, -9.6105, -0.0051, 0.0083, -0.0032, 0.0428, 0.0505, -0.2259, 0.0162, -0.0150, -0.1102, 386, 115292, 0.0000, 0.0000, -0.0610, 0.0000
5.2230, -0.1177, -0.0785, -9.6105, -0.0051, 0.0083, -0.0032, 0.0439, 0.0508, -0.2266, 0.0162, -0.0145, -0.1107, 387, 115292, 0.0000, 0.0000, -0.0677, 0.0000
5.2430, -0.1177, -0.0785, -9.6105, -0.0051, 0.0083, -0.0032, 0.0448, 0.0511, -0.2273, 0.0169, -0.0145, -0.1114, 388, 115292, 0.0000, 0.0000, -0.0743, 0.0000
5.2630, -0.1177, -0.0785, -9.6105, -0.0051, 0.0083, -0.0032, 0.0459, 0.0514, -0.2281, 0.0171, -0.0142, -0.1120, 389, 115292, 0.0000, 0.0000, -0.0810, 0.0000
5.2830, -0.1177, -0.0785, -9.6105, -0.0051, 0.0083, -0.0032, 0.0469, 0.0519, -0.2288, 0.0172, -0.0140, -0.1122, 390, 115292, 0.0000, 0.0000, -0.0877, 0.0000
5.3030, -0.1177, -0.0785, -9.6105, -0.0051, 0.0083, -0.0032, 0.0479, 0.0524, -0.2298, 0.0171, -0.0149, -0.1130, 391, 115292, 0.0000, 0.0000, -0.0943, 0.0000
5.3230, -0.1177, -0.0785, -9.6105, -0.0051, 0.0083, -0.0032, 0.0490, 0.0527, -0.2307, 0.0171, -0.0153, -0.1125, 392, 115292, 0.0000, 0.0000, -0.1010, 0.0000
5.3430, -0.1177, -0.0785, -9.6105, -0.0051, 0.0083, -0.0032, 0.0499, 0.0532, -0.2315, 0.0178, -0.0159, -0.1135, 393, 115292, 0.0000, 0.0000, -0.1077, 0.0000
5.3630, -0.1177, -0.0785, -9.6105, -0.0051, 0.0083, -0.0032, 0.0511, 0.0537, -0.2328, 0.0181, -0.0155, -0.1141, 394, 115292, 0.0000, 0.0000, -0.1143, 0.0000
5.3830, -0.1177, -0.0785, -9.6105, -0.0051, 0.0083, -0.0032, 0.0522, 0.0543, -0.2338, 0.0179, -0.0152, -0.1134, 395, 115292, 0.0000, 0.0000, -0.1210, 0.0000
5.4030, -0.1177, -0.0785, -9.6105, -0.0051, 0.0083, -0.0032, 0.0533, 0.0548, -0.2350, 0.0182, -0.0150, -0.1143, 396, 115292, 0.0000, 0.0000, -0.1277, 0.0000
5.4230, -0.1177, -0.0785, -9.6105, -0.0051, 0.0083, -0.0032, 0.0541, 0.0553, -0.2362, 0.0184, -0.0146, -0.1148, 397, 115292, 0.0000, 0.0000, -0.1343, 0.0000
5.4430, -0.1177, -0.0785, -9.6105, -0.0051, 0.0083, -0.0032, 0.0553, 0.0558, -0.2377, 0.0186, -0.0143, -0.1156, 398, 115292, 0.0000, 0.0000, -0.1410, 0.0000
5.4630, -0.1177, -0.0785, -9.6105, -0.0051, 0.0083, -0.0032, 0.0564, 0.0565, -0.2393, 0.0188, -0.0137, -0.1159, 399, 115292, 0.0000, 0.0000, -0.1477, 0.0000
5.4830, -0.1177, -0.0785, -9.6105, -0.0051, 0.0083, -0.0032, 0.0574, 0.0570, -0.2408, 0.0189, -0.0124, -0.1164, 400, 115292, 0.0000, 0.0000, -0.1543, 0.0000
5.5030, -0.1177, -0.0785, -9.6105, -0.0051, 0.0083, -0.0032, 0.0583, 0.0575, -0.2426, 0.0191, -0.0115, -0.1166, 401, 115292, 0.0000, 0.0000, -0.1610, 0.0000
5.5230, -0.1177, -0.0785, -9.6105, -0.0051, 0.0083, -0.0032, 0.0594, 0.0581, -0.2445, 0.0195, -0.0103, -0.1168, 402, 115292, 0.0000, 0.0000, -0.1677, 0.0000
5.5430, -0.1177, -0.0785, -9.6105, -0.0051, 0.0083, -0.0032, 0.0603, 0.0586, -0.2466, 0.0200, -0.0093, -0.1173, 403, 115292, 0.0000, 0.0000, -0.1743, 0.0000
5.5630, -0.1177, -0.0785, -9.6105, -0.0051, 0.0083, -0.0032, 0.0612, 0.0590, -0.2487, 0.0202, -0.0084, -0.1177, 404, 115292, 0.0000, 0.0000, -0.1810, 0.0000
5.5830, -0.1177, -0.0785, -9.6105, -0.0051, 0.0083, -0.0032, 0.0622, 0.0596, -0.2509, 0.0205, -0.0079, -0.1184, 405, 115292, 0.0000, 0.0000, -0.1877, 0.0000
5.6030, -0.1177, -0.0785, -9.6105, -0.0051, 0.0083, -0.0032, 0.0633, 0.0601, -0.2532, 0.0207, -0.0078, -0.1196, 406, 115292, 0.0000, 0.0000, -0.1943, 0.0000
5.6230, -0.1177, -0.0785, -9.6105, -0.0051, 0.0083, -0.0032, 0.0639, 0.0606, -0.2556, 0.0205, -0.0076, -0.1192, 407, 115292, 0.0000, 0.0000, -0.2010, 0.0000
5.6430, -0.1177, -0.0785, -9.6105, -0.0051, 0.0083, -0.0032, 0.0648, 0.0611, -0.2581, 0.0210, -0.0071, -0.1189, 408, 115292, 0.0000, 0.0000, -0.2077, 0.0000
5.6630, -0.1177, -0.0785, -9.6105, -0.0051, 0.0083, -0.0032, 0.0656, 0.0616, -0.2604, 0.0204, -0.0066, -0.1190, 409, 115292, 0.0000, 0.0000, -0.2143, 0.0000
5.6830, -0.1177, -0.0785, -9.6105, -0.0051, 0.0083, -0.0032, 0.0663, 0.0621, -0.2630, 0.0208, -0.0058, -0.1193, 410, 115292, 0.0000, 0.0000, -0.2210, 0.0000
5.7030, -0.1177, -0.0785, -9.6105, -0.0051, 0.0083, -0.0032, 0.0670, 0.0624, -0.2656, 0.0211, -0.0051, -0.1194, 411, 115292, 0.0000, 0.0000, -0.2277, 0.0000
5.7230, -0.1177, -0.0785, -9.6105, -0.0051, 0.0083, -0.0032, 0.0677, 0.0627, -0.2681, 0.0211, -0.0043, -0.1187, 412, 115292, 0.0000, 0.0000, -0.2343, 0.0000
5.7430, -0.1177, -0.0785, -9.6105, -0.0051, 0.0083, -0.0032, 0.0685, 0.0631, -0.2709, 0.0213, -0.0043, -0.1196, 413, 115292, 0.0000, 0.0000, -0.2410, 0.0000
5.7630, -0.1177, -0.0785, -9.6105, -0.0051, 0.0083, -0.0032, 0.0690, 0.0634, -0.2734, 0.0209, -0.0044, -0.1194, 414, 115292, 0.0000, 0.0000, -0.2477, 0.0000
5.7830, -0.1177, -0.0785, -9.6105, -0.0051, 0.0083, -0.0032, 0.0695, 0.0637, -0.2763, 0.0213, -0.0044, -0.1206, 415, 115292, 0.0000, 0.0000, -0.2543, 0.0000
5.8030, -0.1177, -0.0785, -9.6105, -0.0051, 0.0083, -0.0032, 0.0700, 0.0641, -0.2791, 0.0208, -0.0046, -0.1212, 416, 115292, 0.0000, 0.0000, -0.2610, 0.0000
5.8230, -0.1177, -0.0785, -9.6105, -0.0051, 0.0083, -0.0032, 0.0705, 0.0643, -0.2820, 0.0206, -0.0054, -0.1209, 417, 115292, 0.0000, 0.0000, -0.2677, 0.0000
5.8430, -0.1177, -0.0785, -9.6105, -0.0051, 0.0083, -0.0032, 0.0709, 0.0646, -0.2850, 0.0210, -0.0053, -0.1213, 418, 115292, 0.0000, 0.0000, -0.2743, 0.0000
5.8630, -0.1177, -0.0785, -9.6105, -0.0051, 0.0083, -0.0032, 0.0712, 0.0647, -0.2878, 0.0207, -0.0046, -0.1201, 419, 115292, 0.0000, 0.0000, -0.2810, 0.0000
5.8830, -0.1177, -0.0785, -9.6105, -0.0051, 0.0083, -0.0032, 0.0716, 0.0649, -0.2910, 0.0209, -0.0047, -0.1206, 420, 115292, 0.0000, 0.0000, -0.2877, 0.0000
5.9030, -0.1177, -0.0785, -9.6105, -0.0051, 0.0083, -0.0032, 0.0719, 0.0651, -0.2938, 0.0208, -0.0041, -0.1197, 421, 115292, 0.0000, 0.0000, -0.2943, 0.0000
5.9230, -0.1177, -0.0785, -9.6105, -0.0051, 0.0083, -0.0032, 0.0722, 0.0652, -0.2968, 0.0207, -0.0039, -0.1194, 422, 115292, 0.0000, 0.0000, -0.3010, 0.0000
5.9430, -0.1177, -0.0785, -9.6105, -0.0051, 0.0083, -0.0032, 0.0724, 0.0655, -0.2999, 0.0208, -0.0032, -0.1193, 423, 115292, 0.0000, 0.0000, -0.3077, 0.0000
5.9630, -0.1177, -0.0785, -9.6105, -0.0051, 0.0083, -0.0032, 0.0726, 0.0656, -0.3028, 0.0207, -0.0029, -0.1185, 424, 115292, 0.0000, 0.0000, -0.3143, 0.0000
5.9830, -0.1177, -0.0785, -9.6105, -0.0051, 0.0083, -0.0032, 0.0727, 0.0656, -0.3062, 0.0206, -0.0036, -0.1189, 425, 115292, 0.0000, 0.0000, -0.3210, 0.0000
6.0030, -0.1177, -0.0785, -9.6105, -0.0051, 0.0083, -0.0032, 0.0728, 0.0658, -0.3093, 0.0202, -0.0039, -0.1188, 426, 115292, 0.0000, 0.0000, -0.3277, 0.0000
6.0230, -0.1177, -0.0785, -9.6105, -0.0051, 0.0083, -0.0032, 0.0729, 0.0658, -0.3126, 0.0201, -0.0047, -0.1189, 427, 115292, 0.0000, 0.0000, -0.3343, 0.0000
6.0430, -0.1177, -0.0785, -9.6105, -0.0051, 0.0083, -0.0032, 0.0729, 0.0659, -0.3160, 0.0200, -0.0053, -0.1195, 428, 115292, 0.0000, 0.0000, -0.3410, 0.0000
6.0630, -0.1177, -0.0785, -9.6105, -0.0051, 0.0083, -0.0032, 0.0729, 0.0659, -0.3193, 0.0199, -0.0058, -0.1191, 429, 115292, 0.0000, 0.0000, -0.3477, 0.0000
6.0830, -0.1177, -0.0785, -9.6105, -0.0051, 0.0083, -0.0032, 0.0728, 0.0661, -0.3229, 0.0196, -0.0067, -0.1189, 430, 115292, 0.0000, 0.0000, -0.3543, 0.0000
6.1030, -0.1177, -0.0785, -9.6105, -0.0051, 0.0083, -0.0032, 0.0726, 0.0663, -0.3263, 0.0194, -0.0065, -0.1178, 431, 115292, 0.0000, 0.0000, -0.3610, 0.0000
6.1230, -0.1177, -0.0785, -9.6105, -0.0051, 0.0083, -0.0032, 0.0725, 0.0664, -0.3300, 0.0192, -0.0069, -0.1176, 432, 115292, 0.0000, 0.0000, -0.3677, 0.0000
6.1430, -0.1177, -0.0785, -9.6105, -0.0051, 0.0083, -0.0032, 0.0721, 0.0665, -0.3336, 0.0190, -0.0070, -0.1173, 433, 115292, 0.0000, 0.0000, -0.3743, 0.0000
6.1630, -0.1177, -0.0785, -9.6105, -0.0051, 0.0083, -0.0032, 0.0720, 0.0665, -0.3373, 0.0186, -0.0080, -0.1176, 434, 115292, 0.0000, 0.0000, -0.3810, 0.0000
6.1830, -0.1177, -0.0785, -9.6105, -0.0051, 0.0083, -0.0032, 0.0717, 0.0666, -0.3406, 0.0185, -0.0082, -0.1180, 435, 115292, 0.0000, 0.0000, -0.3877, 0.0000
6.2030, -0.1177, -0.0785, -9.6105, -0.0051, 0.0083, -0.0032, 0.0714, 0.0666, -0.3440, 0.0187, -0.0090, -0.1187, 436, 115292, 0.0000, 0.0000, -0.3943, 0.0000
6.2230, -0.1177, -0.0785, -9.6105, -0.0051, 0.0083, -0.0032, 0.0712, 0.0667, -0.3471, 0.0185, -0.0091, -0.1191, 437, 115292, 0.0000, 0.0000, -0.4010, 0.0000
6.2460, -0.1177, -0.0785, -9.6105, -0.0051, 0.0083, -0.0032, 0.0708, 0.0669, -0.3501, 0.0185, -0.0103, -0.1192, 438, 115292, 0.0000, 0.0000, -0.4077, 0.0000
6.2660, -0.1177, -0.0785, -9.6105, -0.0051, 0.0083, -0.0032, 0.0707, 0.0668, -0.3532, 0.0181, -0.0113, -0.1184, 439, 115292, 0.0000, 0.0000, -0.4153, 0.0000
6.2860, -0.1177, -0.0785, -9.6105, -0.0051, 0.0083, -0.0032, 0.0704, 0.0670, -0.3560, 0.0178, -0.0128, -0.1183, 440, 115292, 0.0000, 0.0000, -0.4220, 0.0000
6.3060, -0.1177, -0.0785, -9.6105, -0.0051, 0.0083, -0.0032, 0.0702, 0.0670, -0.3589, 0.0177, -0.0138, -0.1183, 441, 115292, 0.0000, 0.0000, -0.4287, 0.0000
6.3260, -0.1177, -0.0785, -9.6105, -0.0051, 0.0083, -0.0032, 0.0699, 0.0671, -0.3619, 0.0176, -0.0140, -0.1179, 442, 115292, 0.0000, 0.0000, -0.4353, 0.0000
6.3460, -0.1177, -0.0785, -9.6105, -0.0051, 0.0083, -0.0032, 0.0696, 0.0671, -0.3647, 0.0178, -0.0136, -0.1186, 443, 115292, 0.0000, 0.0000, -0.4420, 0.0000
6.3660, -0.1177, -0.0785, -9.6105, -0.0051, 0.0083, -0.0032, 0.0693, 0.0673, -0.3678, 0.0176, -0.0145, -0.1173, 444, 115292, 0.0000, 0.0000, -0.4487, 0.0000
6.3860, -0.1177, -0.0785, -9.6105, -0.0051, 0.0083, -0.0032, 0.0691, 0.0674, -0.3707, 0.0173, -0.0154, -0.1173, 445, 115292, 0.0000, 0.0000, -0.4553, 0.0000
6.4060, -0.1177, -0.0785, -9.6105, -0.0051, 0.0083, -0.0032, 0.0688, 0.0675, -0.3740, 0.0174, -0.0164, -0.1169, 446, 115292, 0.0000, 0.0000, -0.4620, 0.0000
6.4260, -0.1177, -0.0785, -9.6105, -0.0051, 0.0083, -0.0032, 0.0687, 0.0676, -0.3773, 0.0172, -0.0176, -0.1156, 447, 115292, 0.0000, 0.0000, -0.4687, 0.0000
6.4460, -0.1177, -0.0785, -9.6105, -0.0051, 0.0083, -0.0032, 0.0684, 0.0678, -0.3807, 0.0171, -0.0177, -0.1152, 448, 115292, 0.0000, 0.0000, -0.4753, 0.0000
6.4660, -0.1177, -0.0785, -9.6105, -0.0051, 0.0083, -0.0032, 0.0681, 0.0681, -0.3843, 0.0178, -0.0179, -0.1145, 449, 115292, 0.0000, 0.0000, -0.4820, 0.0000
6.4860, -0.1177, -0.0785, -9.6105, -0.0051, 0.0083, -0.0032, 0.0678, 0.0682, -0.3873, 0.0173, -0.0181, -0.1146, 450, 115292, 0.0000, 0.0000, -0.4887, 0.0000
6.5060, -0.1177, -0.0785, -9.6105, -0.0051, 0.0083, -0.0032, 0.0677, 0.0684, -0.3908, 0.0174, -0.0194, -0.1150, 451, 115292, 0.0000, 0.0000, -0.4953, 0.0000
6.5260, -0.1177, -0.0785, -9.6105, -0.0051, 0.0083, -0.0032, 0.0676, 0.0687, -0.3938, 0.0175, -0.0203, -0.1162, 452, 115292, 0.0000, 0.0000, -0.5020, 0.0000
6.5460, -0.1177, -0.0785, -9.6105, -0.0051, 0.0083, -0.0032, 0.0674, 0.0689, -0.3970, 0.0172, -0.0208, -0.1167, 453, 115292, 0.0000, 0.0000, -0.5087, 0.0000
6.5660, -0.1177, -0.0785, -9.6105, -0.0051, 0.0083, -0.0032, 0.0672, 0.0691, -0.4001, 0.0174, -0.0206, -0.1171, 454, 115292, 0.0000, 0.0000, -0.5153, 0.0000
6.5860, -0.1177, -0.0785, -9.6105, -0.0051, 0.0083, -0.0032, 0.0672, 0.0694, -0.4031, 0.0174, -0.0216, -0.1174, 455, 115292, 0.0000, 0.0000, -0.5220, 0.0000
6.6060, -0.1177, -0.0785, -9.6105, -0.0051, 0.0083, -0.0032, 0.0671, 0.0696, -0.4063, 0.0172, -0.0211, -0.1166, 456, 115292, 0.0000, 0.0000, -0.5287, 0.0000
6.6260, -0.1177, -0.0785, -9.6105, -0.0051, 0.0083, -0.0032, 0.0670, 0.0698, -0.4093, 0.0179, -0.0213, -0.1178, 457, 115292, 0.0000, 0.0000, -0.5353, 0.0000
6.6460, -0.1177, -0.0785, -9.6105, -0.0051, 0.0083, -0.0032, 0.0672, 0.0700, -0.4125, 0.0175, -0.0217, -0.1185, 458, 115292, 0.0000, 0.0000, -0.5420, 0.0000
6.6660, -0.1177, -0.0785, -9.6105, -0.0051, 0.0083, -0.0032, 0.0671, 0.0701, -0.4157, 0.0178, -0.0215, -0.1184, 459, 115292, 0.0000, 0.0000, -0.5487, 0.0000
6.6860, -0.1177, -0.0785, -9.6105, -0.0051, 0.0083, -0.0032, 0.0672, 0.0705, -0.4186, 0.0181, -0.0214, -0.1187, 460, 115292, 0.0000, 0.0000, -0.5553, 0.0000
6.7060, -0.1177, -0.0785, -9.6105, -0.0051, 0.0083, -0.0032, 0.0673, 0.0704, -0.4219, 0.0182, -0.0208, -0.1190, 461, 115292, 0.0000, 0.0000, -0.5620, 0.0000
6.7260, -0.1177, -0.0785, -9.6105, -0.0051, 0.0083, -0.0032, 0.0675, 0.0707, -0.4250, 0.0190, -0.0209, -0.1197, 462, 115292, 0.0000, 0.0000, -0.5687, 0.0000
6.7460, -0.1177, -0.0785, -9.6105, -0.0051, 0.0083, -0.0032, 0.0678, 0.0709, -0.4282, 0.0187, -0.0203, -0.1197, 463, 115292, 0.0000, 0.0000, -0.5753, 0.0000
6.7660, -0.1177, -0.0785, -9.6105, -0.0051, 0.0083, -0.0032, 0.0680, 0.0711, -0.4316, 0.0190, -0.0208, -0.1196, 464, 115292, 0.0000, 0.0000, -0.5820, 0.0000
6.7860, -0.1177, -0.0785, -9.6105, -0.0051, 0.0083, -0.0032, 0.0684, 0.0712, -0.4348, 0.0195, -0.0219, -0.1204, 465, 115292, 0.0000, 0.0000, -0.5887, 0.0000
6.8060, -0.1177, -0.0785, -9.6105, -0.0051, 0.0083, -0.0032, 0.0688, 0.0713, -0.4383, 0.0195, -0.0226, -0.1199, 466, 115292, 0.0000, 0.0000, -0.5953, 0.0000
6.8260, -0.1177, -0.0785, -9.6105, -0.0051, 0.0083, -0.0032, 0.0692, 0.0714, -0.4415, 0.0201, -0.0235, -0.1209, 467, 115292, 0.0000, 0.0000, -0.6020, 0.0000
6.8460, -0.1177, -0.0785, -9.6105, -0.0051, 0.0083, -0.0032, 0.0696, 0.0714, -0.4451, 0.0202, -0.0232, -0.1201, 468, 115292, 0.0000, 0.0000, -0.6087, 0.0000
6.8660, -0.1177, -0.0785, -9.6105, -0.0051, 0.0083, -0.0032, 0.0700, 0.0715, -0.4485, 0.0204, -0.0236, -0.1205, 469, 115292, 0.0000, 0.0000, -0.6153, 0.0000
6.8860, -0.1177, -0.0785, -9.6105, -0.0051, 0.0083, -0.0032, 0.0707, 0.0715, -0.4519, 0.0207, -0.0239, -0.1208, 470, 115292, 0.0000, 0.0000, -0.6220, 0.0000
6.9060, -0.1177, -0.0785, -9.6105, -0.0051, 0.0083, -0.0032, 0.0711, 0.0714, -0.4555, 0.0210, -0.0236, -0.1206, 471, 115292, 0.0000, 0.0000, -0.6287, 0.0000
6.9260, -0.1177, -0.0785, -9.6105, -0.0051, 0.0083, -0.0032, 0.0719, 0.0716, -0.4589, 0.0216, -0.0234, -0.1213, 472, 115292, 0.0000, 0.0000, -0.6353, 0.0000
6.9460, -0.1177, -0.0785, -9.6105, -0.0051, 0.0083, -0.0032, 0.0724, 0.0715, -0.4624, 0.0221, -0.0224, -0.1208, 473, 115292, 0.0000, 0.0000, -0.6420, 0.0000
6.9660, -0.1177, -0.0785, -9.6105, -0.0051, 0.0083, -0.0032, 0.0731, 0.0715, -0.4652, 0.0228, -0.0209, -0.1207, 474, 115292, 0.0000, 0.0000, -0.6487, 0.0000
6.9860, -0.1177, -0.0785, -9.6105, -0.0051, 0.0083, -0.0032, 0.0740, 0.0713, -0.4679, 0.0233, -0.0199, -0.1201, 475, 115292, 0.0000, 0.0000, -0.6553, 0.0000
7.0060, -0.1177, -0.0785, -9.6105, -0.0051, 0.0083, -0.0032, 0.0746, 0.0713, -0.4705, 0.0240, -0.0193, -0.1206, 476, 115292, 0.0000, 0.0000, -0.6620, 0.0000
7.0260, -0.1177, -0.0785, -9.6105, -0.0051, 0.0083, -0.0032, 0.0754, 0.0711, -0.4734, 0.0243, -0.0189, -0.1204, 477, 115292, 0.0000, 0.0000, -0.6687, 0.0000
7.0460, -0.1177, -0.0785, -9.6105, -0.0051, 0.0083, -0.0032, 0.0763, 0.0710, -0.4761, 0.0248, -0.0184, -0.1204, 478, 115292, 0.0000, 0.0000, -0.6753, 0.0000
7.0660, -0.1177, -0.0785, -9.6105, -0.0051, 0.0083, -0.0032, 0.0771, 0.0709, -0.4790, 0.0255, -0.0175, -0.1201, 479, 115292, 0.0000, 0.0000, -0.6820, 0.0000
7.0860, -0.1177, -0.0785, -9.6105, -0.0051, 0.0083, -0.0032, 0.0781, 0.0708, -0.4820, 0.0257, -0.0169, -0.1193, 480, 115292, 0.0000, 0.0000, -0.6887, 0.0000
7.1060, -0.1177, -0.0785, -9.6105, -0.0051, 0.0083, -0.0032, 0.0788, 0.0706, -0.4849, 0.0263, -0.0159, -0.1182, 481, 115292, 0.0000, 0.0000, -0.6953, 0.0000
7.1260, -0.1177, -0.0785, -9.6105, -0.0051, 0.0083, -0.0032, 0.0799, 0.0705, -0.4882, 0.0265, -0.0159, -0.1176, 482, 115292, 0.0000, 0.0000, -0.7020, 0.0000
7.1460, -0.1177, -0.0785, -9.6105, -0.0051, 0.0083, -0.0032, 0.0809, 0.0703, -0.4913, 0.0271, -0.0153, -0.1179, 483, 115292, 0.0000, 0.0000, -0.7087, 0.0000
7.1660, -0.1177, -0.0785, -9.6105, -0.0051, 0.0083, -0.0032, 0.0816, 0.0702, -0.4947, 0.0276, -0.0141, -0.1169, 484, 115292, 0.0000, 0.0000, -0.7153, 0.0000
7.1860, -0.1177, -0.0785, -9.6105, -0.0051, 0.0083, -0.0032, 0.0828, 0.0700, -0.4983, 0.0281, -0.0132, -0.1172, 485, 115292, 0.0000, 0.0000, -0.7220, 0.0000
7.2060, -0.1177, -0.0785, -9.6105, -0.0051, 0.0083, -0.0032, 0.0837, 0.0698, -0.5017, 0.0285, -0.0125, -0.1161, 486, 115292, 0.0000, 0.0000, -0.7287, 0.0000
7.2260, -0.1177, -0.0785, -9.6105, -0.0051, 0.0083, -0.0032, 0.0848, 0.0697, -0.5054, 0.0290, -0.0120, -0.1159, 487, 115292, 0.0000, 0.0000, -0.7353, 0.0000
7.2460, -0.1177, -0.0785, -9.6105, -0.0051, 0.0083, -0.0032, 0.0859, 0.0694, -0.5090, 0.0293, -0.0114, -0.1153, 488, 115292, 0.0000, 0.0000, -0.7420, 0.0000
7.2660, -0.1177, -0.0785, -9.6105, -0.0051, 0.0083, -0.0032, 0.0867, 0.0694, -0.5129, 0.0294, -0.0109, -0.1142, 489, 115292, 0.0000, 0.0000, -0.7487, 0.0000
7.2860, -0.1177, -0.0785, -9.6105, -0.0051, 0.0083, -0.0032, 0.0879, 0.0691, -0.5168, 0.0300, -0.0111, -0.1141, 490, 115292, 0.0000, 0.0000, -0.7553, 0.0000
7.3060, -0.1177, -0.0785, -9.6105, -0.0051, 0.0083, -0.0032, 0.0890, 0.0689, -0.5208, 0.0301, -0.0108, -0.1128, 491, 115292, 0.0000, 0.0000, -0.7620, 0.0000
7.3260, -0.1177, -0.0785, -9.6105, -0.0051, 0.0083, -0.0032, 0.0901, 0.0688, -0.5248, 0.0305, -0.0109, -0.1136, 492, 115292, 0.0000, 0.0000, -0.7687, 0.0000
7.3460, -0.1177, -0.0785, -9.6105, -0.0051, 0.0083, -0.0032, 0.0910, 0.0686, -0.5289, 0.0308, -0.0110, -0.1130, 493, 115292, 0.0000, 0.0000, -0.7753, 0.0000
7.3660, -0.1177, -0.0785, -9.6105, -0.0051, 0.0083, -0.0032, 0.0922, 0.0686, -0.5331, 0.0309, -0.0105, -0.1126, 494, 115292, 0.0000, 0.0000, -0.7820, 0.0000
7.3860, -0.1177, -0.0785, -9.6105, -0.0051, 0.0083, -0.0032, 0.0930, 0.0684, -0.5373, 0.0312, -0.0098, -0.1127, 495, 115292, 0.0000, 0.0000, -0.7887, 0.0000
7.4060, -0.1177, -0.0785, -9.6105, -0.0051, 0.0083, -0.0032, 0.0941, 0.0683, -0.5416, 0.0313, -0.0090, -0.1118, 496, 115292, 0.0000, 0.0000, -0.7953, 0.0000
7.4260, -0.1177, -0.0785, -9.6105, -0.0051, 0.0083, -0.0032, 0.0951, 0.0681, -0.5459, 0.0317, -0.0091, -0.1125, 497, 115292, 0.0000, 0.0000, -0.8020, 0.0000
7.4460, -0.1177, -0.0785, -9.6105, -0.0051, 0.0083, -0.0032, 0.0960, 0.0682, -0.5502, 0.0318, -0.0081, -0.1122, 498, 115292, 0.0000, 0.0000, -0.8087, 0.0000
7.4660, -0.1177, -0.0785, -9.6105, -0.0051, 0.0083, -0.0032, 0.0972, 0.0680, -0.5547, 0.0316, -0.0085, -0.1117, 499, 115292, 0.0000, 0.0000, -0.8153, 0.0000
7.4860, -0.1177, -0.0785, -9.6105, -0.0051, 0.0083, -0.0032, 0.0981, 0.0680, -0.5591, 0.0317, -0.0085, -0.1119, 500, 115292, 0.0000, 0.0000, -0.8220, 0.0000
7.5060, -0.1177, -0.0785, -9.6105, -0.0051, 0.0083, -0.0032, 0.0991, 0.0680, -0.5637, 0.0322, -0.0074, -0.1113, 501, 115292, 0.0000, 0.0000, -0.8287, 0.0000
7.5260, -0.1177, -0.0785, -9.6105, -0.0051, 0.0083, -0.0032, 0.1001, 0.0679, -0.5682, 0.0323, -0.0072, -0.1109, 502, 115292, 0.0000, 0.0000, -0.8353, 0.0000
7.5460, -0.1177, -0.0785, -9.6105, -0.0051, 0.0083, -0.0032, 0.1010, 0.0680, -0.5728, 0.0323, -0.0069, -0.1108, 503, 115292, 0.0000, 0.0000, -0.8420, 0.0000
7.5660, -0.1177, -0.0785, -9.6105, -0.0051, 0.0083, -0.0032, 0.1020, 0.0680, -0.5775, 0.0326, -0.0070, -0.1111, 504, 115292, 0.0000, 0.0000, -0.8487, 0.0000
7.5860, -0.1177, -0.0785, -9.6105, -0.0051, 0.0083, -0.0032, 0.1028, 0.0679, -0.5820, 0.0327, -0.0065, -0.1104, 505, 115292, 0.0000, 0.0000, -0.8553, 0.0000
7.6060, -0.1177, -0.0785, -9.6105, -0.0051, 0.0083, -0.0032, 0.1038, 0.0680, -0.5868, 0.0331, -0.0062, -0.1115, 506, 115292, 0.0000, 0.0000, -0.8620, 0.0000
7.6260, -0.1177, -0.0785, -9.6105, -0.0051, 0.0083, -0.0032, 0.1046, 0.0681, -0.5915, 0.0329, -0.0062, -0.1115, 507, 115292, 0.0000, 0.0000, -0.8687, 0.0000
7.6460, -0.1177, -0.0785, -9.6105, -0.0051, 0.0083, -0.0032, 0.1055, 0.0682, -0.5964, 0.0328, -0.0064, -0.1114, 508, 115292, 0.0000, 0.0000, -0.8753, 0.0000
7.6660, -0.1177, -0.0785, -9.6105, -0.0051, 0.0083, -0.0032, 0.1064, 0.0682, -0.6013, 0.0329, -0.0071, -0.1122, 509, 115292, 0.0000, 0.0000, -0.8820, 0.0000
7.6860, -0.1177, -0.0785, -9.6105, -0.0051, 0.0083, -0.0032, 0.1071, 0.0682, -0.6062, 0.0328, -0.0072, -0.1126, 510, 115292, 0.0000, 0.0000, -0.8887, 0.0000
7.7060, -0.1177, -0.0785, -9.6105, -0.0051, 0.0083, -0.0032, 0.1081, 0.0683, -0.6113, 0.0330, -0.0082, -0.1136, 511, 115292, 0.0000, 0.0000, -0.8953, 0.0000
7.7260, -0.1177, -0.0785, -9.6105, -0.0051, 0.0083, -0.0032, 0.1088, 0.0685, -0.6161, 0.0328, -0.0087, -0.1136, 512, 115292, 0.0000, 0.0000, -0.9020, 0.0000
7.7450, -0.1177, -0.0785, -9.6105, -0.0051, 0.0083, -0.0032, 0.1097, 0.0685, -0.6212, 0.0326, -0.0088, -0.1134, 513, 115292, 0.0000, 0.0000, -0.9087, 0.0000
7.7660, -0.1177, -0.0785, -9.6105, -0.0051, 0.0083, -0.0032, 0.1105, 0.0686, -0.6261, 0.0329, -0.0089, -0.1135, 514, 115292, 0.0000, 0.0000, -0.9150, 0.0000
7.7860, -0.1177, -0.0785, -9.6105, -0.0051, 0.0083, -0.0032, 0.1112, 0.0687, -0.6312, 0.0328, -0.0086, -0.1142, 515, 115292, 0.0000, 0.0000, -0.9220, 0.0000
7.8060, -0.1177, -0.0785, -9.6105, -0.0051, 0.0083, -0.0032, 0.1120, 0.0689, -0.6363, 0.0325, -0.0086, -0.1146, 516, 115292, 0.0000, 0.0000, -0.9287, 0.0000
7.8260, -0.1177, -0.0785, -9.6105, -0.0051, 0.0083, -0.0032, 0.1125, 0.0689, -0.6413, 0.0325, -0.0077, -0.1146, 517, 115292, 0.0000, 0.0000, -0.9353, 0.0000
7.8450, -0.1177, -0.0785, -9.6105, -0.0051, 0.0083, -0.0032, 0.1134, 0.0691, -0.6464, 0.0327, -0.0074, -0.1157, 518, 115292, 0.0000, 0.0000, -0.9420, 0.0000
7.8660, -0.1177, -0.0785, -9.6105, -0.0051, 0.0083, -0.0032, 0.1141, 0.0692, -0.6515, 0.0326, -0.0070, -0.1153, 519, 115292, 0.0000, 0.0000, -0.9483, 0.0000
7.8860, -0.1177, -0.0785, -9.6105, -0.0051, 0.0083, -0.0032, 0.1148, 0.0692, -0.6565, 0.0328, -0.0070, -0.1160, 520, 115292, 0.0000, 0.0000, -0.9553, 0.0000
7.9060, -0.1177, -0.0785, -9.6105, -0.0051, 0.0083, -0.0032, 0.1155, 0.0693, -0.6618, 0.0323, -0.0067, -0.1159, 521, 115292, 0.0000, 0.0000, -0.9620, 0.0000
7.9260, -0.1177, -0.0785, -9.6105, -0.0051, 0.0083, -0.0032, 0.1162, 0.0694, -0.6669, 0.0323, -0.0068, -0.1155, 522, 115292, 0.0000, 0.0000, -0.9687, 0.0000
7.9450, -0.1177, -0.0785, -9.6105, -0.0051, 0.0083, -0.0032, 0.1169, 0.0695, -0.6722, 0.0321, -0.0075, -0.1161, 523, 115292, 0.0000, 0.0000, -0.9753, 0.0000
7.9660, -0.1177, -0.0785, -9.6105, -0.0051, 0.0083, -0.0032, 0.1176, 0.0695, -0.6774, 0.0322, -0.0075, -0.1161, 524, 115292, 0.0000, 0.0000, -0.9817, 0.0000
7.9860, -0.1177, -0.0785, -9.6105, -0.0051, 0.0083, -0.0032, 0.1184, 0.0696, -0.6826, 0.0321, -0.0074, -0.1164, 525, 115292, 0.0000, 0.0000, -0.9887, 0.0000
8.0060, -0.1177, -0.0785, -9.6105, -0.0051, 0.0083, -0.0032, 0.1189, 0.0697, -0.6879, 0.0319, -0.0081, -0.1160, 526, 115292, 0.0000, 0.0000, -0.9953, 0.0000
8.0260, -0.1177, -0.0785, -9.6105, -0.0051, 0.0083, -0.0032, 0.1196, 0.0697, -0.6933, 0.0317, -0.0089, -0.1161, 527, 115292, 0.0000, 0.0000, -1.0000, 0.0000
8.0450, -0.1177, -0.0785, -9.6105, -0.0051, 0.0083, -0.0032, 0.1204, 0.0698, -0.6987, 0.0313, -0.0107, -0.1166, 528, 115292, 0.0000, 0.0000, -1.0000, 0.0000
8.0650, -0.1177, -0.0785, -9.6105, -0.0051, 0.0083, -0.0032, 0.1211, 0.0697, -0.7040, 0.0314, -0.0120, -0.1179, 529, 115292, 0.0000, 0.0000, -1.0000, 0.0000
8.0860, -0.1177, -0.0785, -9.6105, -0.0051, 0.0083, -0.0032, 0.1218, 0.0699, -0.7094, 0.0311, -0.0118, -0.1181, 530, 115292, 0.0000, 0.0000, -1.0000, 0.0000
8.1060, -0.1177, -0.0785, -9.6105, -0.0051, 0.0083, -0.0032, 0.1223, 0.0698, -0.7147, 0.0309, -0.0118, -0.1182, 531, 115292, 0.0000, 0.0000, -1.0000, 0.0000
8.1260, -0.1177, -0.0785, -9.6105, -0.0051, 0.0083, -0.0032, 0.1230, 0.0698, -0.7202, 0.0313, -0.0117, -0.1181, 532, 115292, 0.0000, 0.0000, -1.0000, 0.0000
8.1450, -0.1177, -0.0785, -9.6105, -0.0051, 0.0083, -0.0032, 0.1237, 0.0697, -0.7255, 0.0311, -0.0108, -0.1182, 533, 115292, 0.0000, 0.0000, -1.0000, 0.0000
8.1660, -0.1177, -0.0785, -9.6105, -0.0051, 0.0083, -0.0032, 0.1243, 0.0697, -0.7309, 0.0312, -0.0107, -0.1191, 534, 115292, 0.0000, 0.0000, -1.0000, 0.0000
8.1860, -0.1177, -0.0785, -9.6105, -0.0051, 0.0083, -0.0032, 0.1250, 0.0697, -0.7364, 0.0311, -0.0104, -0.1186, 535, 115292, 0.0000, 0.0000, -1.0000, 0.0000
8.2060, -0.1177, -0.0785, -9.6105, -0.0051, 0.0083, -0.0032, 0.1257, 0.0696, -0.7417, 0.0307, -0.0109, -0.1188, 536, 115292, 0.0000, 0.0000, -1.0000, 0.0000
8.2260, -0.1177, -0.0785, -9.6105, -0.0051, 0.0083, -0.0032, 0.1263, 0.0695, -0.7471, 0.0309, -0.0112, -0.1186, 537, 115292, 0.0000, 0.0000, -1.0000, 0.0000
8.2470, -0.1177, -0.0785, -9.6105, -0.0051, 0.0083, -0.0032, 0.1271, 0.0693, -0.7523, 0.0307, -0.0118, -0.1190, 538, 115292, 0.0000, 0.0000, -1.0000, 0.0000
8.2670, -0.1177, -0.0785, -9.6105, -0.0051, 0.0083, -0.0032, 0.1278, 0.0693, -0.7576, 0.0304, -0.0122, -0.1191, 539, 115292, 0.0000, 0.0000, -1.0000, 0.0000
8.2870, -0.1177, -0.0785, -9.6105, -0.0051, 0.0083, -0.0032, 0.1285, 0.0691, -0.7629, 0.0305, -0.0124, -0.1189, 540, 115292, 0.0000, 0.0000, -1.0000, 0.0000
8.3070, -0.1177, -0.0785, -9.6105, -0.0051, 0.0083, -0.0032, 0.1291, 0.0690, -0.7680, 0.0301, -0.0130, -0.1194, 541, 115292, 0.0000, 0.0000, -1.0000, 0.0000
8.3270, -0.1177, -0.0785, -9.6105, -0.0051, 0.0083, -0.0032, 0.1299, 0.0688, -0.7732, 0.0305, -0.0127, -0.1190, 542, 115292, 0.0000, 0.0000, -1.0000, 0.0000
8.3470, -0.1177, -0.0785, -9.6105, -0.0051, 0.0083, -0.0032, 0.1305, 0.0686, -0.7781, 0.0306, -0.0116, -0.1189, 543, 115292, 0.0000, 0.0000, -1.0000, 0.0000
8.3670, -0.1177, -0.0785, -9.6105, -0.0051, 0.0083, -0.0032, 0.1312, 0.0684, -0.7831, 0.0304, -0.0113, -0.1195, 544, 115292, 0.0000, 0.0000, -1.0000, 0.0000
8.3870, -0.1177, -0.0785, -9.6105, -0.0051, 0.0083, -0.0032, 0.1318, 0.0682, -0.7879, 0.0307, -0.0111, -0.1193, 545, 115292, 0.0000, 0.0000, -1.0000, 0.0000
8.4070, -0.1177, -0.0785, -9.6105, -0.0051, 0.0083, -0.0032, 0.1326, 0.0680, -0.7928, 0.0304, -0.0112, -0.1187, 546, 115292, 0.0000, 0.0000, -1.0000, 0.0000
8.4270, -0.1177, -0.0785, -9.6105, -0.0051, 0.0083, -0.0032, 0.1334, 0.0678, -0.7976, 0.0303, -0.0117, -0.1188, 547, 115292, 0.0000, 0.0000, -1.0000, 0.0000
8.4470, -0.1177, -0.0785, -9.6105, -0.0051, 0.0083, -0.0032, 0.1341, 0.0674, -0.8022, 0.0305, -0.0110, -0.1189, 548, 115292, 0.0000, 0.0000, -1.0000, 0.0000
8.4670, -0.1177, -0.0785, -9.6105, -0.0051, 0.0083, -0.0032, 0.1349, 0.0672, -0.8069, 0.0303, -0.0107, -0.1193, 549, 115292, 0.0000, 0.0000, -1.0000, 0.0000
8.4870, -0.1177, -0.0785, -9.6105, -0.0051, 0.0083, -0.0032, 0.1356, 0.0669, -0.8114, 0.0304, -0.0098, -0.1193, 550, 115292, 0.0000, 0.0000, -1.0000, 0.0000
8.5070, -0.1177, -0.0785, -9.6105, -0.0051, 0.0083, -0.0032, 0.1361, 0.0665, -0.8159, 0.0303, -0.0094, -0.1197, 551, 115292, 0.0000, 0.0000, -1.0000, 0.0000
8.5270, -0.1177, -0.0785, -9.6105, -0.0051, 0.0083, -0.0032, 0.1370, 0.0662, -0.8203, 0.0300, -0.0093, -0.1199, 552, 115292, 0.0000, 0.0000, -1.0000, 0.0000
8.5470, -0.1177, -0.0785, -9.6105, -0.0051, 0.0083, -0.0032, 0.1377, 0.0658, -0.8245, 0.0299, -0.0092, -0.1205, 553, 115292, 0.0000, 0.0000, -1.0000, 0.0000
8.5670, -0.1177, -0.0785, -9.6105, -0.0051, 0.0083, -0.0032, 0.1384, 0.0655, -0.8288, 0.0299, -0.0090, -0.1208, 554, 115292, 0.0000, 0.0000, -1.0000, 0.0000
8.5870, -0.1177, -0.0785, -9.6105, -0.0051, 0.0083, -0.0032, 0.1391, 0.0651, -0.8328, 0.0297, -0.0085, -0.1210, 555, 115292, 0.0000, 0.0000, -1.0000, 0.0000
8.6070, -0.1177, -0.0785, -9.6105, -0.0051, 0.0083, -0.0032, 0.1398, 0.0647, -0.8370, 0.0298, -0.0082, -0.1207, 556, 115292, 0.0000, 0.0000, -1.0000, 0.0000
8.6270, -0.1177, -0.0785, -9.6105, -0.0051, 0.0083, -0.0032, 0.1405, 0.0643, -0.8409, 0.0296, -0.0079, -0.1201, 557, 115292, 0.0000, 0.0000, -1.0000, 0.0000
8.6470, -0.1177, -0.0785, -9.6105, -0.0051, 0.0083, -0.0032, 0.1412, 0.0638, -0.8448, 0.0298, -0.0077, -0.1201, 558, 115292, 0.0000, 0.0000, -1.0000, 0.0000
8.6670, -0.1177, -0.0785, -9.6105, -0.0051, 0.0083, -0.0032, 0.1419, 0.0633, -0.8486, 0.0298, -0.0077, -0.1202, 559, 115292, 0.0000, 0.0000, -1.0000, 0.0000
8.6870, -0.1177, -0.0785, -9.6105, -0.0051, 0.0083, -0.0032, 0.1426, 0.0629, -0.8524, 0.0294, -0.0080, -0.1203, 560, 115292, 0.0000, 0.0000, -1.0000, 0.0000
8.7070, -0.1177, -0.0785, -9.6105, -0.0051, 0.0083, -0.0032, 0.1433, 0.0623, -0.8561, 0.0295, -0.0084, -0.1201, 561, 115292, 0.0000, 0.0000, -1.0000, 0.0000
8.7270, -0.1177, -0.0785, -9.6105, -0.0051, 0.0083, -0.0032, 0.1439, 0.0618, -0.8597, 0.0293, -0.0078, -0.1195, 562, 115292, 0.0000, 0.0000, -1.0000, 0.0000
8.7470, -0.1177, -0.0785, -9.6105, -0.0051, 0.0083, -0.0032, 0.1445, 0.0613, -0.8633, 0.0293, -0.0072, -0.1191, 563, 115292, 0.0000, 0.0000, -1.0000, 0.0000
8.7670, -0.1177, -0.0785, -9.6105, -0.0051, 0.0083, -0.0032, 0.1452, 0.0607, -0.8667, 0.0294, -0.0066, -0.1193, 564, 115292, 0.0000, 0.0000, -1.0000, 0.0000
8.7870, -0.1177, -0.0785, -9.6105, -0.0051, 0.0083, -0.0032, 0.1458, 0.0601, -0.8700, 0.0293, -0.0069, -0.1194, 565, 115292, 0.0000, 0.0000, -1.0000, 0.0000
8.8070, -0.1177, -0.0785, -9.6105, -0.0051, 0.0083, -0.0032, 0.1465, 0.0594, -0.8735, 0.0292, -0.0070, -0.1200, 566, 115292, 0.0000, 0.0000, -1.0000, 0.0000
8.8270, -0.1177, -0.0785, -9.6105, -0.0051, 0.0083, -0.0032, 0.1470, 0.0588, -0.8766, 0.0290, -0.0072, -0.1200, 567, 115292, 0.0000, 0.0000, -1.0000, 0.0000
8.8470, -0.1177, -0.0785, -9.6105, -0.0051, 0.0083, -0.0032, 0.1477, 0.0581, -0.8799, 0.0285, -0.0079, -0.1201, 568, 115292, 0.0000, 0.0000, -1.0000, 0.0000
8.8670, -0.1177, -0.0785, -9.6105, -0.0051, 0.0083, -0.0032, 0.1482, 0.0574, -0.8830, 0.0283, -0.0088, -0.1201, 569, 115292, 0.0000, 0.0000, -1.0000, 0.0000
8.8870, -0.1177, -0.0785, -9.6105, -0.0051, 0.0083, -0.0032, 0.1489, 0.0567, -0.8861, 0.0282, -0.0103, -0.1205, 570, 115292, 0.0000, 0.0000, -1.0000, 0.0000
8.9070, -0.1177, -0.0785, -9.6105, -0.0051, 0.0083, -0.0032, 0.1496, 0.0560, -0.8891, 0.0279, -0.0107, -0.1199, 571, 115292, 0.0000, 0.0000, -1.0000, 0.0000
8.9270, -0.1177, -0.0785, -9.6105, -0.0051, 0.0083, -0.0032, 0.1501, 0.0553, -0.8918, 0.0279, -0.0108, -0.1188, 572, 115292, 0.0000, 0.0000, -1.0000, 0.0000
8.9470, -0.1177, -0.0785, -9.6105, -0.0051, 0.0083, -0.0032, 0.1508, 0.0545, -0.8946, 0.0277, -0.0105, -0.1183, 573, 115292, 0.0000, 0.0000, -1.0000, 0.0000
8.9670, -0.1177, -0.0785, -9.6105, -0.0051, 0.0083, -0.0032, 0.1513, 0.0537, -0.8970, 0.0277, -0.0101, -0.1173, 574, 115292, 0.0000, 0.0000, -1.0000, 0.0000
8.9870, -0.1177, -0.0785, -9.6105, -0.0051, 0.0083, -0.0032, 0.1519, 0.0531, -0.8995, 0.0277, -0.0100, -0.1169, 575, 115292, 0.0000, 0.0000, -1.0000, 0.0000
9.0070, -0.1177, -0.0785, -9.6105, -0.0051, 0.0083, -0.0032, 0.1526, 0.0523, -0.9019, 0.0276, -0.0099, -0.1160, 576, 115292, 0.0000, 0.0000, -1.0000, 0.0000
9.0270, -0.1177, -0.0785, -9.6105, -0.0051, 0.0083, -0.0032, 0.1531, 0.0515, -0.9041, 0.0278, -0.0098, -0.1158, 577, 115292, 0.0000, 0.0000, -1.0000, 0.0000
9.0470, -0.1177, -0.0785, -9.6105, -0.0051, 0.0083, -0.0032, 0.1537, 0.0507, -0.9065, 0.0275, -0.0100, -0.1155, 578, 115292, 0.0000, 0.0000, -1.0000, 0.0000
9.0670, -0.1177, -0.0785, -9.6105, -0.0051, 0.0083, -0.0032, 0.1543, 0.0499, -0.9086, 0.0275, -0.0099, -0.1148, 579, 115292, 0.0000, 0.0000, -1.0000, 0.0000
9.0870, -0.1177, -0.0785, -9.6105, -0.0051, 0.0083, -0.0032, 0.1549, 0.0492, -0.9108, 0.0277, -0.0098, -0.1146, 580, 115292, 0.0000, 0.0000, -1.0000, 0.0000
9.1070, -0.1177, -0.0785, -9.6105, -0.0051, 0.0083, -0.0032, 0.1555, 0.0484, -0.9130, 0.0271, -0.0100, -0.1148, 581, 115292, 0.0000, 0.0000, -1.0000, 0.0000
9.1270, -0.1177, -0.0785, -9.6105, -0.0051, 0.0083, -0.0032, 0.1561, 0.0476, -0.9150, 0.0273, -0.0103, -0.1140, 582, 115292, 0.0000, 0.0000, -1.0000, 0.0000
9.1470, -0.1177, -0.0785, -9.6105, -0.0051, 0.0083, -0.0032, 0.1567, 0.0469, -0.9171, 0.0271, -0.0107, -0.1140, 583, 115292, 0.0000, 0.0000, -1.0000, 0.0000
9.1670, -0.1177, -0.0785, -9.6105, -0.0051, 0.0083, -0.0032, 0.1574, 0.0461, -0.9192, 0.0268, -0.0114, -0.1132, 584, 115292, 0.0000, 0.0000, -1.0000, 0.0000
9.1870, -0.1177, -0.0785, -9.6105, -0.0051, 0.0083, -0.0032, 0.1580, 0.0453, -0.9212, 0.0269, -0.0120, -0.1134, 585, 115292, 0.0000, 0.0000, -1.0000, 0.0000
9.2070, -0.1177, -0.0785, -9.6105, -0.0051, 0.0083, -0.0032, 0.1587, 0.0446, -0.9230, 0.0264, -0.0124, -0.1136, 586, 115292, 0.0000, 0.0000, -1.0000, 0.0000
9.2270, -0.1177, -0.0785, -9.6105, -0.0051, 0.0083, -0.0032, 0.1593, 0.0439, -0.9250, 0.0264, -0.0123, -0.1125, 587, 115292, 0.0000, 0.0000, -1.0000, 0.0000
9.2470, -0.1177, -0.0785, -9.6105, -0.0051, 0.0083, -0.0032, 0.1598, 0.0431, -0.9269, 0.0265, -0.0126, -0.1126, 588, 115292, 0.0000, 0.0000, -1.0000, 0.0000
9.2670, -0.1177, -0.0785, -9.6105, -0.0051, 0.0083, -0.0032, 0.1606, 0.0424, -0.9287, 0.0263, -0.0130, -0.1125, 589, 115292, 0.0000, 0.0000, -1.0000, 0.0000
9.2870, -0.1177, -0.0785, -9.6105, -0.0051, 0.0083, -0.0032, 0.1612, 0.0416, -0.9306, 0.0259, -0.0131, -0.1122, 590, 115292, 0.0000, 0.0000, -1.0000, 0.0000
9.3070, -0.1177, -0.0785, -9.6105, -0.0051, 0.0083, -0.0032, 0.1618, 0.0410, -0.9323, 0.0261, -0.0135, -0.1117, 591, 115292, 0.0000, 0.0000, -1.0000, 0.0000
9.3270, -0.1177, -0.0785, -9.6105, -0.0051, 0.0083, -0.0032, 0.1625, 0.0403, -0.9340, 0.0260, -0.0139, -0.1101, 592, 115292, 0.0000, 0.0000, -1.0000, 0.0000
9.3470, -0.1177, -0.0785, -9.6105, -0.0051, 0.0083, -0.0032, 0.1632, 0.0397, -0.9354, 0.0255, -0.0142, -0.1094, 593, 115292, 0.0000, 0.0000, -1.0000, 0.0000
9.3670, -0.1177, -0.0785, -9.6105, -0.0051, 0.0083, -0.0032, 0.1639, 0.0390, -0.9370, 0.0259, -0.0145, -0.1090, 594, 115292, 0.0000, 0.0000, -1.0000, 0.0000
9.3870, -0.1177, -0.0785, -9.6105, -0.0051, 0.0083, -0.0032, 0.1647, 0.0384, -0.9384, 0.0254, -0.0150, -0.1091, 595, 115292, 0.0000, 0.0000, -1.0000, 0.0000
9.4090, -0.1177, -0.0785, -9.6105, -0.0051, 0.0083, -0.0032, 0.1654, 0.0378, -0.9398, 0.0253, -0.0158, -0.1093, 596, 115292, 0.0000, 0.0000, -1.0000, 0.0000
9.4290, -0.1177, -0.0785, -9.6105, -0.0051, 0.0083, -0.0032, 0.1662, 0.0373, -0.9413, 0.0251, -0.0160, -0.1088, 597, 115292, 0.0000, 0.0000, -1.0000, 0.0000
9.4490, -0.1177, -0.0785, -9.6105, -0.0051, 0.0083, -0.0032, 0.1670, 0.0367, -0.9425, 0.0250, -0.0160, -0.1080, 598, 115292, 0.0000, 0.0000, -1.0000, 0.0000
9.4690, -0.1177, -0.0785, -9.6105, -0.0051, 0.0083, -0.0032, 0.1677, 0.0362, -0.9440, 0.0253, -0.0155, -0.1082, 599, 115292, 0.0000, 0.0000, -1.0000, 0.0000
9.4890, -0.1177, -0.0785, -9.6105, -0.0051, 0.0083, -0.0032, 0.1685, 0.0356, -0.9452, 0.0254, -0.0151, -0.1087, 600, 115292, 0.0000, 0.0000, -1.0000, 0.0000
9.5090, -0.1177, -0.0785, -9.6105, -0.0051, 0.0083, -0.0032, 0.1693, 0.0352, -0.9464, 0.0252, -0.0148, -0.1081, 601, 115292, 0.0000, 0.0000, -1.0000, 0.0000
9.5290, -0.1177, -0.0785, -9.6105, -0.0051, 0.0083, -0.0032, 0.1701, 0.0348, -0.9478, 0.0253, -0.0147, -0.1079, 602, 115292, 0.0000, 0.0000, -1.0000, 0.0000
9.5490, -0.1177, -0.0785, -9.6105, -0.0051, 0.0083, -0.0032, 0.1709, 0.0344, -0.9488, 0.0253, -0.0145, -0.1072, 603, 115292, 0.0000, 0.0000, -1.0000, 0.0000
9.5690, -0.1177, -0.0785, -9.6105, -0.0051, 0.0083, -0.0032, 0.1719, 0.0340, -0.9498, 0.0254, -0.0148, -0.1064, 604, 115292, 0.0000, 0.0000, -1.0000, 0.0000
9.5890, -0.1177, -0.0785, -9.6105, -0.0051, 0.0083, -0.0032, 0.1727, 0.0337, -0.9507, 0.0254, -0.0152, -0.1065, 605, 115292, 0.0000, 0.0000, -1.0000, 0.0000
9.6090, -0.1177, -0.0785, -9.6105, -0.0051, 0.0083, -0.0032, 0.1736, 0.0334, -0.9515, 0.0253, -0.0146, -0.1062, 606, 115292, 0.0000, 0.0000, -1.0000, 0.0000
9.6290, -0.1177, -0.0785, -9.6105, -0.0051, 0.0083, -0.0032, 0.1745, 0.0331, -0.9524, 0.0255, -0.0142, -0.1056, 607, 115292, 0.0000, 0.0000, -1.0000, 0.0000
9.6490, -0.1177, -0.0785, -9.6105, -0.0051, 0.0083, -0.0032, 0.1754, 0.0328, -0.9531, 0.0254, -0.0142, -0.1056, 608, 115292, 0.0000, 0.0000, -1.0000, 0.0000
9.6690, -0.1177, -0.0785, -9.6105, -0.0051, 0.0083, -0.0032, 0.1764, 0.0326, -0.9540, 0.0255, -0.0144, -0.1056, 609, 115292, 0.0000, 0.0000, -1.0000, 0.0000
9.6890, -0.1177, -0.0785, -9.6105, -0.0051, 0.0083, -0.0032, 0.1773, 0.0324, -0.9545, 0.0256, -0.0139, -0.1056, 610, 115292, 0.0000, 0.0000, -1.0000, 0.0000
9.7090, -0.1177, -0.0785, -9.6105, -0.0051, 0.0083, -0.0032, 0.1783, 0.0322, -0.9551, 0.0255, -0.0125, -0.1058, 611, 115292, 0.0000, 0.0000, -1.0000, 0.0000
9.7290, -0.1177, -0.0785, -9.6105, -0.0051, 0.0083, -0.0032, 0.1790, 0.0322, -0.9557, 0.0255, -0.0111, -0.1049, 612, 115292, 0.0000, 0.0000, -1.0000, 0.0000
9.7490, -0.1177, -0.0785, -9.6105, -0.0051, 0.0083, -0.0032, 0.1800, 0.0320, -0.9562, 0.0258, -0.0105, -0.1052, 613, 115292, 0.0000, 0.0000, -1.0000, 0.0000
9.7690, -0.1177, -0.0785, -9.6105, -0.0051, 0.0083, -0.0032, 0.1810, 0.0320, -0.9568, 0.0259, -0.0105, -0.1052, 614, 115292, 0.0000, 0.0000, -1.0000, 0.0000
9.7890, -0.1177, -0.0785, -9.6105, -0.0051, 0.0083, -0.0032, 0.1818, 0.0319, -0.9572, 0.0257, -0.0096, -0.1048, 615, 115292, 0.0000, 0.0000, -1.0000, 0.0000
9.8090, -0.1177, -0.0785, -9.6105, -0.0051, 0.0083, -0.0032, 0.1829, 0.0320, -0.9577, 0.0258, -0.0094, -0.1055, 616, 115292, 0.0000, 0.0000, -1.0000, 0.0000
9.8290, -0.1177, -0.0785, -9.6105, -0.0051, 0.0083, -0.0032, 0.1837, 0.0320, -0.9581, 0.0257, -0.0080, -0.1051, 617, 115292, 0.0000, 0.0000, -1.0000, 0.0000
9.8490, -0.1177, -0.0785, -9.6105, -0.0051, 0.0083, -0.0032, 0.1847, 0.0320, -0.9585, 0.0260, -0.0068, -0.1052, 618, 115292, 0.0000, 0.0000, -1.0000, 0.0000
9.8690, -0.1177, -0.0785, -9.6105, -0.0051, 0.0083, -0.0032, 0.1856, 0.0322, -0.9589, 0.0259, -0.0065, -0.1062, 619, 115292, 0.0000, 0.0000, -1.0000, 0.0000
9.8890, -0.1177, -0.0785, -9.6105, -0.0051, 0.0083, -0.0032, 0.1865, 0.0323, -0.9594, 0.0258, -0.0068, -0.1067, 620, 115292, 0.0000, 0.0000, -1.0000, 0.0000
9.9090, -0.1177, -0.0785, -9.6105, -0.0051, 0.0083, -0.0032, 0.1875, 0.0324, -0.9599, 0.0257, -0.0075, -0.1077, 621, 115292, 0.0000, 0.0000, -1.0000, 0.0000
9.9290, -0.1177, -0.0785, -9.6105, -0.0051, 0.0083, -0.0032, 0.1884, 0.0325, -0.9604, 0.0256, -0.0075, -0.1082, 622, 115292, 0.0000, 0.0000, -1.0000, 0.0000
9.9490, -0.1177, -0.0785, -9.6105, -0.0051, 0.0083, -0.0032, 0.1892, 0.0328, -0.9608, 0.0255, -0.0069, -0.1085, 623, 115292, 0.0000, 0.0000, -1.0000, 0.0000
9.9690, -0.1177, -0.0785, -9.6105, -0.0051, 0.0083, -0.0032, 0.1900, 0.0330, -0.9612, 0.0256, -0.0062, -0.1085, 624, 115292, 0.0000, 0.0000, -1.0000, 0.0000
9.9890, -0.1177, -0.0785, -9.6105, -0.0051, 0.0083, -0.0032, 0.1908, 0.0332, -0.9617, 0.0254, -0.0064, -0.1077, 625, 115292, 0.0000, 0.0000, -1.0000, 0.0000
10.0090, -0.1177, -0.0785, -9.6105, -0.0051, 0.0083, -0.0032, 0.1917, 0.0335, -0.9622, 0.0253, -0.0065, -0.1077, 626, 115292, 0.0000, 0.0000, -1.0000, 0.0000
10.0290, -0.1177, -0.0785, -9.6105, -0.0051, 0.0083, -0.0032, 0.1925, 0.0337, -0.9626, 0.0255, -0.0073, -0.1085, 627, 115292, 0.0030, 0.0030, -1.0015, 0.0000
10.0490, -0.1177, -0.0785, -9.6105, -0.0051, 0.0083, -0.0032, 0.1933, 0.0340, -0.9631, 0.0253, -0.0068, -0.1085, 628, 115292, 0.0097, 0.0097, -1.0048, 0.0000
10.0690, -0.1177, -0.0785, -9.6105, -0.0051, 0.0083, -0.0032, 0.1940, 0.0344, -0.9635, 0.0251, -0.0073, -0.1091, 629, 115292, 0.0163, 0.0163, -1.0082, 0.0000
10.0890, -0.1177, -0.0785, -9.6105, -0.0051, 0.0083, -0.0032, 0.1949, 0.0347, -0.9642, 0.0251, -0.0082, -0.1093, 630, 115292, 0.0230, 0.0230, -1.0115, 0.0000
10.1090, -0.1177, -0.0785, -9.6105, -0.0051, 0.0083, -0.0032, 0.1956, 0.0350, -0.9646, 0.0252, -0.0085, -0.1097, 631, 115292, 0.0297, 0.0297, -1.0148, 0.0000
10.1290, -0.1177, -0.0785, -9.6105, -0.0051, 0.0083, -0.0032, 0.1963, 0.0354, -0.9650, 0.0253, -0.0072, -0.1101, 632, 115292, 0.0363, 0.0363, -1.0182, 0.0000
10.1490, -0.1177, -0.0785, -9.6105, -0.0051, 0.0083, -0.0032, 0.1969, 0.0357, -0.9656, 0.0253, -0.0062, -0.1101, 633, 115292, 0.0430, 0.0430, -1.0215, 0.0000
10.1690, -0.1177, -0.0785, -9.6105, -0.0051, 0.0083, -0.0032, 0.1975, 0.0360, -0.9659, 0.0254, -0.0059, -0.1102, 634, 115292, 0.0497, 0.0497, -1.0248, 0.0000
10.1890, -0.1177, -0.0785, -9.6105, -0.0051, 0.0083, -0.0032, 0.1983, 0.0365, -0.9665, 0.0255, -0.0060, -0.1108, 635, 115292, 0.0563, 0.0563, -1.0282, 0.0000
10.2090, -0.1177, -0.0785, -9.6105, -0.0051, 0.0083, -0.0032, 0.1991, 0.0369, -0.9669, 0.0255, -0.0070, -0.1108, 636, 115292, 0.0630, 0.0630, -1.0315, 0.0000
10.2290, -0.1177, -0.0785, -9.6105, -0.0051, 0.0083, -0.0032, 0.1997, 0.0373, -0.9675, 0.0255, -0.0074, -0.1106, 637, 115292, 0.0697, 0.0697, -1.0348, 0.0000
10.2410, -0.1177, -0.0785, -9.6105, -0.0051, 0.0083, -0.0032, 0.2003, 0.0377, -0.9681, 0.0252, -0.0083, -0.1100, 638, 115292, 0.0763, 0.0763, -1.0382, 0.0000
10.2610, -0.1177, -0.0785, -9.6105, -0.0051, 0.0083, -0.0032, 0.2011, 0.0381, -0.9686, 0.0249, -0.0095, -0.1095, 639, 115292, 0.0803, 0.0803, -1.0402, 0.0000
10.2810, -0.1177, -0.0785, -9.6105, -0.0051, 0.0083, -0.0032, 0.2018, 0.0387, -0.9692, 0.0248, -0.0114, -0.1088, 640, 115292, 0.0870, 0.0870, -1.0435, 0.0000
10.3010, -0.1177, -0.0785, -9.6105, -0.0051, 0.0083, -0.0032, 0.2024, 0.0391, -0.9699, 0.0246, -0.0122, -0.1080, 641, 115292, 0.0937, 0.0937, -1.0468, 0.0000
10.3210, -0.1177, -0.0785, -9.6105, -0.0051, 0.0083, -0.0032, 0.2031, 0.0396, -0.9706, 0.0242, -0.0135, -0.1080, 642, 115292, 0.1003, 0.1003, -1.0502, 0.0000
10.3410, -0.1177, -0.0785, -9.6105, -0.0051, 0.0083, -0.0032, 0.2039, 0.0402, -0.9713, 0.0243, -0.0158, -0.1071, 643, 115292, 0.1070, 0.1070, -1.0535, 0.0000
10.3610, -0.1177, -0.0785, -9.6105, -0.0051, 0.0083, -0.0032, 0.2048, 0.0406, -0.9720, 0.0241, -0.0180, -0.1064, 644, 115292, 0.1137, 0.1137, -1.0568, 0.0000
10.3810, -0.1177, -0.0785, -9.6105, -0.0051, 0.0083, -0.0032, 0.2057, 0.0413, -0.9728, 0.0237, -0.0203, -0.1056, 645, 115292, 0.1203, 0.1203, -1.0602, 0.0000
10.4000, -0.1177, -0.0785, -9.6105, -0.0051, 0.0083, -0.0032, 0.2064, 0.0419, -0.9737, 0.0235, -0.0224, -0.1047, 646, 115292, 0.1270, 0.1270, -1.0635, 0.0000
10.4210, -0.1177, -0.0785, -9.6105, -0.0051, 0.0083, -0.0032, 0.2074, 0.0425, -0.9746, 0.0231, -0.0245, -0.1040, 647, 115292, 0.1333, 0.1333, -1.0667, 0.0000
10.4410, -0.1177, -0.0785, -9.6105, -0.0051, 0.0083, -0.0032, 0.2084, 0.0432, -0.9754, 0.0227, -0.0265, -0.1031, 648, 115292, 0.1403, 0.1403, -1.0702, 0.0000
10.4610, -0.1177, -0.0785, -9.6105, -0.0051, 0.0083, -0.0032, 0.2094, 0.0439, -0.9765, 0.0225, -0.0288, -0.1017, 649, 115292, 0.1470, 0.1470, -1.0735, 0.0000
10.4810, -0.1177, -0.0785, -9.6105, -0.0051, 0.0083, -0.0032, 0.2106, 0.0446, -0.9776, 0.0223, -0.0316, -0.1010, 650, 115292, 0.1537, 0.1537, -1.0768, 0.0000
10.5010, -0.1177, -0.0785, -9.6105, -0.0051, 0.0083, -0.0032, 0.2118, 0.0455, -0.9787, 0.0218, -0.0351, -0.1003, 651, 115292, 0.1603, 0.1603, -1.0802, 0.0000
10.5210, -0.1177, -0.0785, -9.6105, -0.0051, 0.0083, -0.0032, 0.2131, 0.0463, -0.9799, 0.0214, -0.0375, -0.0999, 652, 115292, 0.1670, 0.1670, -1.0835, 0.0000
10.5410, -0.1177, -0.0785, -9.6105, -0.0051, 0.0083, -0.0032, 0.2146, 0.0473, -0.9812, 0.0210, -0.0396, -0.0984, 653, 115292, 0.1737, 0.1737, -1.0868, 0.0000
10.5600, -0.1177, -0.0785, -9.6105, -0.0051, 0.0083, -0.0032, 0.2161, 0.0482, -0.9825, 0.0213, -0.0413, -0.0965, 654, 115292, 0.1803, 0.1803, -1.0902, 0.0000
10.5810, -0.1177, -0.0785, -9.6105, -0.0051, 0.0083, -0.0032, 0.2176, 0.0492, -0.9837, 0.0211, -0.0431, -0.0952, 655, 115292, 0.1867, 0.1867, -1.0933, 0.0000
10.6010, -0.1177, -0.0785, -9.6105, -0.0051, 0.0083, -0.0032, 0.2194, 0.0504, -0.9851, 0.0209, -0.0448, -0.0933, 656, 115292, 0.1937, 0.1937, -1.0968, 0.0000
10.6210, -0.1177, -0.0785, -9.6105, -0.0051, 0.0083, -0.0032, 0.2212, 0.0515, -0.9865, 0.0208, -0.0466, -0.0920, 657, 115292, 0.2003, 0.2003, -1.1002, 0.0000
10.6410, -0.1177, -0.0785, -9.6105, -0.0051, 0.0083, -0.0032, 0.2233, 0.0528, -0.9878, 0.0209, -0.0483, -0.0912, 658, 115292, 0.2070, 0.2070, -1.1035, 0.0000
10.6610, -0.1177, -0.0785, -9.6105, -0.0051, 0.0083, -0.0032, 0.2255, 0.0541, -0.9895, 0.0207, -0.0499, -0.0904, 659, 115292, 0.2137, 0.2137, -1.1068, 0.0000
10.6810, -0.1177, -0.0785, -9.6105, -0.0051, 0.0083, -0.0032, 0.2277, 0.0556, -0.9909, 0.0210, -0.0518, -0.0893, 660, 115292, 0.2203, 0.2203, -1.1102, 0.0000
10.7000, -0.1177, -0.0785, -9.6105, -0.0051, 0.0083, -0.0032, 0.2302, 0.0570, -0.9924, 0.0209, -0.0536, -0.0888, 661, 115292, 0.2270, 0.2270, -1.1135, 0.0000
10.7210, -0.1177, -0.0785, -9.6105, -0.0051, 0.0083, -0.0032, 0.2328, 0.0585, -0.9940, 0.0213, -0.0544, -0.0874, 662, 115292, 0.2333, 0.2333, -1.1167, 0.0000
10.7510, -0.1177, -0.0785, -9.6105, -0.0051, 0.0083, -0.0032, 0.2355, 0.0603, -0.9955, 0.0215, -0.0553, -0.0865, 663, 115292, 0.2403, 0.2403, -1.1202, 0.0000
10.7710, -0.1177, -0.0785, -9.6105, -0.0051, 0.0083, -0.0032, 0.2385, 0.0622, -0.9973, 0.0216, -0.0561, -0.0846, 664, 115292, 0.2503, 0.2503, -1.1252, 0.0000
10.7810, -0.1177, -0.0785, -9.6105, -0.0051, 0.0083, -0.0032, 0.2416, 0.0640, -0.9988, 0.0217, -0.0570, -0.0835, 665, 115292, 0.2570, 0.2570, -1.1285, 0.0000
10.8010, -0.1177, -0.0785, -9.6105, -0.0051, 0.0083, -0.0032, 0.2448, 0.0659, -1.0006, 0.0219, -0.0575, -0.0828, 666, 115292, 0.2603, 0.2603, -1.1302, 0.0000
10.8210, -0.1177, -0.0785, -9.6105, -0.0051, 0.0083, -0.0032, 0.2483, 0.0680, -1.0021, 0.0220, -0.0585, -0.0823, 667, 115292, 0.2670, 0.2670, -1.1335, 0.0000
10.8410, -0.1177, -0.0785, -9.6105, -0.0051, 0.0083, -0.0032, 0.2520, 0.0702, -1.0039, 0.0221, -0.0592, -0.0816, 668, 115292, 0.2737, 0.2737, -1.1368, 0.0000
10.8610, -0.1177, -0.0785, -9.6105, -0.0051, 0.0083, -0.0032, 0.2557, 0.0726, -1.0057, 0.0221, -0.0604, -0.0809, 669, 115292, 0.2803, 0.2803, -1.1402, 0.0000
10.8810, -0.1177, -0.0785, -9.6105, -0.0051, 0.0083, -0.0032, 0.2597, 0.0750, -1.0074, 0.0225, -0.0610, -0.0802, 670, 115292, 0.2870, 0.2870, -1.1435, 0.0000
10.9010, -0.1177, -0.0785, -9.6105, -0.0051, 0.0083, -0.0032, 0.2639, 0.0777, -1.0092, 0.0225, -0.0603, -0.0791, 671, 115292, 0.2937, 0.2937, -1.1468, 0.0000
10.9210, -0.1177, -0.0785, -9.6105, -0.0051, 0.0083, -0.0032, 0.2680, 0.0803, -1.0110, 0.0230, -0.0590, -0.0781, 672, 115292, 0.3003, 0.3003, -1.1502, 0.0000
10.9410, -0.1177, -0.0785, -9.6105, -0.0051, 0.0083, -0.0032, 0.2725, 0.0832, -1.0129, 0.0235, -0.0582, -0.0760, 673, 115292, 0.3070, 0.3070, -1.1535, 0.0000
10.9610, -0.1177, -0.0785, -9.6105, -0.0051, 0.0083, -0.0032, 0.2772, 0.0861, -1.0147, 0.0238, -0.0576, -0.0750, 674, 115292, 0.3137, 0.3137, -1.1568, 0.0000
10.9810, -0.1177, -0.0785, -9.6105, -0.0051, 0.0083, -0.0032, 0.2819, 0.0893, -1.0166, 0.0240, -0.0576, -0.0742, 675, 115292, 0.3203, 0.3203, -1.1602, 0.0000
11.0010, -0.1177, -0.0785, -9.6105, -0.0051, 0.0083, -0.0032, 0.2868, 0.0924, -1.0187, 0.0240, -0.0573, -0.0734, 676, 115292, 0.3270, 0.3270, -1.1635, 0.0000
11.0210, -0.1177, -0.0785, -9.6105, -0.0051, 0.0083, -0.0032, 0.2920, 0.0958, -1.0206, 0.0241, -0.0571, -0.0731, 677, 115292, 0.3337, 0.3337, -1.1668, 0.0000
11.0410, -0.1177, -0.0785, -9.6105, -0.0051, 0.0083, -0.0032, 0.2973, 0.0993, -1.0228, 0.0246, -0.0560, -0.0727, 678, 115292, 0.3403, 0.3403, -1.1702, 0.0000
11.0610, -0.1177, -0.0785, -9.6105, -0.0051, 0.0083, -0.0032, 0.3026, 0.1030, -1.0248, 0.0249, -0.0545, -0.0715, 679, 115292, 0.3470, 0.3470, -1.1735, 0.0000
11.0810, -0.1177, -0.0785, -9.6105, -0.0051, 0.0083, -0.0032, 0.3081, 0.1068, -1.0269, 0.0250, -0.0539, -0.0712, 680, 115292, 0.3537, 0.3537, -1.1768, 0.0000
11.1010, -0.1177, -0.0785, -9.6105, -0.0051, 0.0083, -0.0032, 0.3138, 0.1108, -1.0290, 0.0254, -0.0529, -0.0703, 681, 115292, 0.3603, 0.3603, -1.1802, 0.0000
11.1210, -0.1177, -0.0785, -9.6105, -0.0051, 0.0083, -0.0032, 0.3197, 0.1148, -1.0312, 0.0257, -0.0526, -0.0702, 682, 115292, 0.3670, 0.3670, -1.1835, 0.0000
11.1510, -0.1177, -0.0785, -9.6105, -0.0051, 0.0083, -0.0032, 0.3257, 0.1190, -1.0335, 0.0257, -0.0519, -0.0708, 683, 115292, 0.3737, 0.3737, -1.1868, 0.0000
11.1610, -0.1177, -0.0785, -9.6105, -0.0051, 0.0083, -0.0032, 0.3317, 0.1235, -1.0357, 0.0258, -0.0512, -0.0702, 684, 115292, 0.3837, 0.3837, -1.1918, 0.0000
11.1810, -0.1177, -0.0785, -9.6105, -0.0051, 0.0083, -0.0032, 0.3380, 0.1280, -1.0381, 0.0262, -0.0502, -0.0700, 685, 115292, 0.3870, 0.3870, -1.1935, 0.0000
11.2010, -0.1177, -0.0785, -9.6105, -0.0051, 0.0083, -0.0032, 0.3442, 0.1326, -1.0404, 0.0265, -0.0487, -0.0707, 686, 115292, 0.3937, 0.3937, -1.1968, 0.0000
11.2210, -0.1177, -0.0785, -9.6105, -0.0051, 0.0083, -0.0032, 0.3506, 0.1374, -1.0428, 0.0268, -0.0467, -0.0708, 687, 115292, 0.4003, 0.4003, -1.2002, 0.0000
11.2410, -0.1177, -0.0785, -9.6105, -0.0051, 0.0083, -0.0032, 0.3571, 0.1424, -1.0453, 0.0269, -0.0446, -0.0709, 688, 115292, 0.4070, 0.4070, -1.2035, 0.0000
11.2710, -0.1177, -0.0785, -9.6105, -0.0051, 0.0083, -0.0032, 0.3637, 0.1475, -1.0475, 0.0271, -0.0439, -0.0719, 689, 115292, 0.4137, 0.4137, -1.2068, 0.0000
11.2910, -0.1177, -0.0785, -9.6105, -0.0051, 0.0083, -0.0032, 0.3705, 0.1526, -1.0502, 0.0272, -0.0427, -0.0723, 690, 115292, 0.4237, 0.4237, -1.2118, 0.0000
11.3010, -0.1177, -0.0785, -9.6105, -0.0051, 0.0083, -0.0032, 0.3772, 0.1581, -1.0526, 0.0273, -0.0409, -0.0726, 691, 115292, 0.4303, 0.4303, -1.2152, 0.0000
11.3210, -0.1177, -0.0785, -9.6105, -0.0051, 0.0083, -0.0032, 0.3840, 0.1636, -1.0552, 0.0275, -0.0394, -0.0727, 692, 115292, 0.4337, 0.4337, -1.2168, 0.0000
11.3410, -0.1177, -0.0785, -9.6105, -0.0051, 0.0083, -0.0032, 0.3909, 0.1691, -1.0577, 0.0277, -0.0380, -0.0727, 693, 115292, 0.4403, 0.4403, -1.2202, 0.0000
11.3610, -0.1177, -0.0785, -9.6105, -0.0051, 0.0083, -0.0032, 0.3978, 0.1749, -1.0601, 0.0278, -0.0360, -0.0734, 694, 115292, 0.4470, 0.4470, -1.2235, 0.0000
11.3810, -0.1177, -0.0785, -9.6105, -0.0051, 0.0083, -0.0032, 0.4049, 0.1808, -1.0629, 0.0281, -0.0348, -0.0735, 695, 115292, 0.4537, 0.4537, -1.2268, 0.0000
11.4100, -0.1177, -0.0785, -9.6105, -0.0051, 0.0083, -0.0032, 0.4120, 0.1868, -1.0655, 0.0280, -0.0332, -0.0740, 696, 115292, 0.4603, 0.4603, -1.2302, 0.0000
11.4200, -0.1177, -0.0785, -9.6105, -0.0051, 0.0083, -0.0032, 0.4190, 0.1929, -1.0682, 0.0284, -0.0318, -0.0743, 697, 115292, 0.4700, 0.4700, -1.2350, 0.0000
11.4500, -0.1177, -0.0785, -9.6105, -0.0051, 0.0083, -0.0032, 0.4262, 0.1990, -1.0709, 0.0284, -0.0299, -0.0756, 698, 115292, 0.4733, 0.4733, -1.2367, 0.0000
11.4700, -0.1177, -0.0785, -9.6105, -0.0051, 0.0083, -0.0032, 0.4334, 0.2055, -1.0737, 0.0286, -0.0285, -0.0770, 699, 115292, 0.4833, 0.4833, -1.2417, 0.0000
11.4800, -0.1177, -0.0785, -9.6105, -0.0051, 0.0083, -0.0032, 0.4405, 0.2118, -1.0765, 0.0287, -0.0275, -0.0776, 700, 115292, 0.4900, 0.4900, -1.2450, 0.0000
11.5010, -0.1177, -0.0785, -9.6105, -0.0051, 0.0083, -0.0032, 0.4477, 0.2183, -1.0792, 0.0289, -0.0256, -0.0787, 701, 115292, 0.4933, 0.4933, -1.2467, 0.0000
11.5210, -0.1177, -0.0785, -9.6105, -0.0051, 0.0083, -0.0032, 0.4549, 0.2249, -1.0820, 0.0291, -0.0236, -0.0797, 702, 115292, 0.5003, 0.5003, -1.2502, 0.0000
11.5510, -0.1177, -0.0785, -9.6105, -0.0051, 0.0083, -0.0032, 0.4621, 0.2316, -1.0848, 0.0292, -0.0217, -0.0805, 703, 115292, 0.5070, 0.5070, -1.2535, 0.0000
11.5610, -0.1177, -0.0785, -9.6105, -0.0051, 0.0083, -0.0032, 0.4694, 0.2384, -1.0877, 0.0292, -0.0200, -0.0821, 704, 115292, 0.5170, 0.5170, -1.2585, 0.0000
11.5810, -0.1177, -0.0785, -9.6105, -0.0051, 0.0083, -0.0032, 0.4766, 0.2452, -1.0907, 0.0293, -0.0181, -0.0835, 705, 115292, 0.5203, 0.5203, -1.2602, 0.0000
11.6010, -0.1177, -0.0785, -9.6105, -0.0051, 0.0083, -0.0032, 0.4837, 0.2522, -1.0936, 0.0293, -0.0172, -0.0847, 706, 115292, 0.5270, 0.5270, -1.2635, 0.0000
11.6210, -0.1177, -0.0785, -9.6105, -0.0051, 0.0083, -0.0032, 0.4910, 0.2591, -1.0966, 0.0293, -0.0165, -0.0855, 707, 115292, 0.5337, 0.5337, -1.2668, 0.0000
11.6510, -0.1177, -0.0785, -9.6105, -0.0051, 0.0083, -0.0032, 0.4981, 0.2661, -1.0996, 0.0293, -0.0155, -0.0863, 708, 115292, 0.5403, 0.5403, -1.2702, 0.0000
11.6710, -0.1177, -0.0785, -9.6105, -0.0051, 0.0083, -0.0032, 0.5053, 0.2732, -1.1026, 0.0291, -0.0148, -0.0873, 709, 115292, 0.5503, 0.5503, -1.2752, 0.0000
11.6910, -0.1177, -0.0785, -9.6105, -0.0051, 0.0083, -0.0032, 0.5124, 0.2804, -1.1056, 0.0291, -0.0141, -0.0883, 710, 115292, 0.5570, 0.5570, -1.2785, 0.0000
11.7110, -0.1177, -0.0785, -9.6105, -0.0051, 0.0083, -0.0032, 0.5195, 0.2877, -1.1087, 0.0292, -0.0131, -0.0890, 711, 115292, 0.5637, 0.5637, -1.2818, 0.0000
11.7310, -0.1177, -0.0785, -9.6105, -0.0051, 0.0083, -0.0032, 0.5266, 0.2950, -1.1119, 0.0290, -0.0122, -0.0896, 712, 115292, 0.5703, 0.5703, -1.2852, 0.0000
11.7510, -0.1177, -0.0785, -9.6105, -0.0051, 0.0083, -0.0032, 0.5335, 0.3023, -1.1150, 0.0289, -0.0120, -0.0909, 713, 115292, 0.5770, 0.5770, -1.2885, 0.0000
11.7710, -0.1177, -0.0785, -9.6105, -0.0051, 0.0083, -0.0032, 0.5406, 0.3096, -1.1183, 0.0291, -0.0117, -0.0922, 714, 115292, 0.5837, 0.5837, -1.2918, 0.0000
11.7810, -0.1177, -0.0785, -9.6105, -0.0051, 0.0083, -0.0032, 0.5474, 0.3169, -1.1214, 0.0291, -0.0114, -0.0937, 715, 115292, 0.5903, 0.5903, -1.2952, 0.0000
11.8110, -0.1177, -0.0785, -9.6105, -0.0051, 0.0083, -0.0032, 0.5544, 0.3243, -1.1247, 0.0291, -0.0109, -0.0952, 716, 115292, 0.5937, 0.5937, -1.2968, 0.0000
11.8310, -0.1177, -0.0785, -9.6105, -0.0051, 0.0083, -0.0032, 0.5613, 0.3318, -1.1278, 0.0287, -0.0116, -0.0963, 717, 115292, 0.6037, 0.6037, -1.3018, 0.0000
11.8410, -0.1177, -0.0785, -9.6105, -0.0051, 0.0083, -0.0032, 0.5682, 0.3392, -1.1310, 0.0284, -0.0118, -0.0970, 718, 115292, 0.6103, 0.6103, -1.3052, 0.0000
11.8710, -0.1177, -0.0785, -9.6105, -0.0051, 0.0083, -0.0032, 0.5749, 0.3465, -1.1343, 0.0286, -0.0112, -0.0980, 719, 115292, 0.6137, 0.6137, -1.3068, 0.0000
11.8810, -0.1177, -0.0785, -9.6105, -0.0051, 0.0083, -0.0032, 0.5815, 0.3539, -1.1374, 0.0286, -0.0112, -0.0991, 720, 115292, 0.6237, 0.6237, -1.3118, 0.0000
11.9110, -0.1177, -0.0785, -9.6105, -0.0051, 0.0083, -0.0032, 0.5882, 0.3614, -1.1407, 0.0284, -0.0106, -0.1000, 721, 115292, 0.6270, 0.6270, -1.3135, 0.0000
11.9310, -0.1177, -0.0785, -9.6105, -0.0051, 0.0083, -0.0032, 0.5948, 0.3689, -1.1439, 0.0282, -0.0106, -0.1010, 722, 115292, 0.6370, 0.6370, -1.3185, 0.0000
11.9510, -0.1177, -0.0785, -9.6105, -0.0051, 0.0083, -0.0032, 0.6015, 0.3762, -1.1471, 0.0283, -0.0106, -0.1022, 723, 115292, 0.6437, 0.6437, -1.3218, 0.0000
11.9710, -0.1177, -0.0785, -9.6105, -0.0051, 0.0083, -0.0032, 0.6081, 0.3838, -1.1504, 0.0283, -0.0110, -0.1035, 724, 115292, 0.6503, 0.6503, -1.3252, 0.0000
11.9830, -0.1177, -0.0785, -9.6105, -0.0051, 0.0083, -0.0032, 0.6146, 0.3912, -1.1535, 0.0280, -0.0112, -0.1044, 725, 115292, 0.6570, 0.6570, -1.3285, 0.0000
12.0020, -0.1177, -0.0785, -9.6105, -0.0051, 0.0083, -0.0032, 0.6211, 0.3986, -1.1569, 0.0278, -0.0108, -0.1047, 726, 115292, 0.6610, 0.6610, -1.3305, 0.0000
12.0220, -0.1177, -0.0785, -9.6105, -0.0051, 0.0083, -0.0032, 0.6275, 0.4060, -1.1600, 0.0278, -0.0109, -0.1063, 727, 115292, 0.6673, 0.6673, -1.3337, 0.0000
12.0420, -0.1177, -0.0785, -9.6105, -0.0051, 0.0083, -0.0032, 0.6340, 0.4135, -1.1634, 0.0277, -0.0108, -0.1073, 728, 115292, 0.6740, 0.6740, -1.3370, 0.0000
12.0620, -0.1177, -0.0785, -9.6105, -0.0051, 0.0083, -0.0032, 0.6403, 0.4207, -1.1666, 0.0274, -0.0107, -0.1082, 729, 115292, 0.6807, 0.6807, -1.3403, 0.0000
12.0820, -0.1177, -0.0785, -9.6105, -0.0051, 0.0083, -0.0032, 0.6466, 0.4281, -1.1699, 0.0277, -0.0106, -0.1090, 730, 115292, 0.6873, 0.6873, -1.3437, 0.0000
12.1010, -0.1177, -0.0785, -9.6105, -0.0051, 0.0083, -0.0032, 0.6530, 0.4354, -1.1733, 0.0276, -0.0106, -0.1091, 731, 115292, 0.6940, 0.6940, -1.3470, 0.0000
12.1290, -0.1177, -0.0785, -9.6105, -0.0051, 0.0083, -0.0032, 0.6592, 0.4426, -1.1765, 0.0273, -0.0109, -0.1102, 732, 115292, 0.7003, 0.7003, -1.3502, 0.0000
12.1490, -0.1177, -0.0785, -9.6105, -0.0051, 0.0083, -0.0032, 0.6654, 0.4500, -1.1799, 0.0276, -0.0100, -0.1103, 733, 115292, 0.7097, 0.7097, -1.3548, 0.0000
12.1680, -0.1177, -0.0785, -9.6105, -0.0051, 0.0083, -0.0032, 0.6716, 0.4571, -1.1833, 0.0272, -0.0090, -0.1111, 734, 115292, 0.7163, 0.7163, -1.3582, 0.0000
12.1890, -0.1177, -0.0785, -9.6105, -0.0051, 0.0083, -0.0032, 0.6778, 0.4643, -1.1867, 0.0273, -0.0090, -0.1118, 735, 115292, 0.7227, 0.7227, -1.3613, 0.0000
12.2090, -0.1177, -0.0785, -9.6105, -0.0051, 0.0083, -0.0032, 0.6839, 0.4714, -1.1901, 0.0271, -0.0095, -0.1128, 736, 115292, 0.7297, 0.7297, -1.3648, 0.0000
12.2290, -0.1177, -0.0785, -9.6105, -0.0051, 0.0083, -0.0032, 0.6898, 0.4784, -1.1934, 0.0269, -0.0104, -0.1128, 737, 115292, 0.7363, 0.7363, -1.3682, 0.0000
12.2410, -0.1177, -0.0785, -9.6105, -0.0051, 0.0083, -0.0032, 0.6960, 0.4855, -1.1969, 0.0268, -0.0112, -0.1132, 738, 115292, 0.7430, 0.7430, -1.3715, 0.0000
12.2610, -0.1177, -0.0785, -9.6105, -0.0051, 0.0083, -0.0032, 0.7018, 0.4924, -1.2001, 0.0264, -0.0115, -0.1135, 739, 115292, 0.7470, 0.7470, -1.3735, 0.0000
12.2810, -0.1177, -0.0785, -9.6105, -0.0051, 0.0083, -0.0032, 0.7080, 0.4993, -1.2036, 0.0263, -0.0120, -0.1131, 740, 115292, 0.7537, 0.7537, -1.3768, 0.0000
12.3010, -0.1177, -0.0785, -9.6105, -0.0051, 0.0083, -0.0032, 0.7138, 0.5062, -1.2069, 0.0263, -0.0124, -0.1135, 741, 115292, 0.7603, 0.7603, -1.3802, 0.0000
12.3210, -0.1177, -0.0785, -9.6105, -0.0051, 0.0083, -0.0032, 0.7198, 0.5130, -1.2104, 0.0257, -0.0127, -0.1132, 742, 115292, 0.7670, 0.7670, -1.3835, 0.0000
12.3410, -0.1177, -0.0785, -9.6105, -0.0051, 0.0083, -0.0032, 0.7257, 0.5199, -1.2137, 0.0254, -0.0138, -0.1134, 743, 115292, 0.7737, 0.7737, -1.3868, 0.0000
12.3610, -0.1177, -0.0785, -9.6105, -0.0051, 0.0083, -0.0032, 0.7315, 0.5266, -1.2171, 0.0252, -0.0144, -0.1129, 744, 115292, 0.7803, 0.7803, -1.3902, 0.0000
12.3810, -0.1177, -0.0785, -9.6105, -0.0051, 0.0083, -0.0032, 0.7375, 0.5333, -1.2205, 0.0252, -0.0143, -0.1127, 745, 115292, 0.7870, 0.7870, -1.3935, 0.0000
12.4110, -0.1177, -0.0785, -9.6105, -0.0051, 0.0083, -0.0032, 0.7431, 0.5399, -1.2237, 0.0253, -0.0145, -0.1128, 746, 115292, 0.7937, 0.7937, -1.3968, 0.0000
12.4210, -0.1177, -0.0785, -9.6105, -0.0051, 0.0083, -0.0032, 0.7489, 0.5465, -1.2271, 0.0250, -0.0143, -0.1132, 747, 115292, 0.8037, 0.8037, -1.4018, 0.0000
12.4410, -0.1177, -0.0785, -9.6105, -0.0051, 0.0083, -0.0032, 0.7547, 0.5530, -1.2304, 0.0250, -0.0147, -0.1131, 748, 115292, 0.8070, 0.8070, -1.4035, 0.0000
12.4610, -0.1177, -0.0785, -9.6105, -0.0051, 0.0083, -0.0032, 0.7603, 0.5595, -1.2338, 0.0248, -0.0151, -0.1135, 749, 115292, 0.8137, 0.8137, -1.4068, 0.0000
12.4810, -0.1177, -0.0785, -9.6105, -0.0051, 0.0083, -0.0032, 0.7662, 0.5659, -1.2373, 0.0245, -0.0153, -0.1132, 750, 115292, 0.8203, 0.8203, -1.4102, 0.0000
12.5010, -0.1177, -0.0785, -9.6105, -0.0051, 0.0083, -0.0032, 0.7719, 0.5724, -1.2405, 0.0244, -0.0151, -0.1130, 751, 115292, 0.8270, 0.8270, -1.4135, 0.0000
12.5210, -0.1177, -0.0785, -9.6105, -0.0051, 0.0083, -0.0032, 0.7776, 0.5788, -1.2440, 0.0242, -0.0160, -0.1129, 752, 115292, 0.8337, 0.8337, -1.4168, 0.0000
12.5410, -0.1177, -0.0785, -9.6105, -0.0051, 0.0083, -0.0032, 0.7835, 0.5851, -1.2473, 0.0238, -0.0168, -0.1124, 753, 115292, 0.8403, 0.8403, -1.4202, 0.0000
12.5610, -0.1177, -0.0785, -9.6105, -0.0051, 0.0083, -0.0032, 0.7892, 0.5914, -1.2507, 0.0236, -0.0172, -0.1123, 754, 115292, 0.8470, 0.8470, -1.4235, 0.0000
12.5810, -0.1177, -0.0785, -9.6105, -0.0051, 0.0083, -0.0032, 0.7949, 0.5978, -1.2540, 0.0234, -0.0182, -0.1117, 755, 115292, 0.8537, 0.8537, -1.4268, 0.0000
12.6010, -0.1177, -0.0785, -9.6105, -0.0051, 0.0083, -0.0032, 0.8006, 0.6039, -1.2573, 0.0229, -0.0191, -0.1107, 756, 115292, 0.8603, 0.8603, -1.4302, 0.0000
12.6210, -0.1177, -0.0785, -9.6105, -0.0051, 0.0083, -0.0032, 0.8062, 0.6101, -1.2607, 0.0229, -0.0200, -0.1109, 757, 115292, 0.8670, 0.8670, -1.4335, 0.0000
12.6510, -0.1177, -0.0785, -9.6105, -0.0051, 0.0083, -0.0032, 0.8120, 0.6163, -1.2641, 0.0226, -0.0199, -0.1111, 758, 115292, 0.8737, 0.8737, -1.4368, 0.0000
12.6610, -0.1177, -0.0785, -9.6105, -0.0051, 0.0083, -0.0032, 0.8177, 0.6225, -1.2674, 0.0224, -0.0208, -0.1107, 759, 115292, 0.8837, 0.8837, -1.4418, 0.0000
12.6810, -0.1177, -0.0785, -9.6105, -0.0051, 0.0083, -0.0032, 0.8234, 0.6285, -1.2709, 0.0225, -0.0210, -0.1103, 760, 115292, 0.8870, 0.8870, -1.4435, 0.0000
12.7010, -0.1177, -0.0785, -9.6105, -0.0051, 0.0083, -0.0032, 0.8292, 0.6345, -1.2742, 0.0225, -0.0208, -0.1093, 761, 115292, 0.8937, 0.8937, -1.4468, 0.0000
12.7210, -0.1177, -0.0785, -9.6105, -0.0051, 0.0083, -0.0032, 0.8348, 0.6406, -1.2777, 0.0222, -0.0209, -0.1094, 762, 115292, 0.9003, 0.9003, -1.4502, 0.0000
12.7410, -0.1177, -0.0785, -9.6105, -0.0051, 0.0083, -0.0032, 0.8405, 0.6466, -1.2809, 0.0222, -0.0193, -0.1101, 763, 115292, 0.9070, 0.9070, -1.4535, 0.0000
12.7610, -0.1177, -0.0785, -9.6105, -0.0051, 0.0083, -0.0032, 0.8461, 0.6524, -1.2843, 0.0225, -0.0153, -0.1134, 764, 115292, 0.9137, 0.9137, -1.4568, 0.0000
12.7810, -0.1177, -0.0785, -9.6105, -0.0051, 0.0083, -0.0032, 0.8517, 0.6583, -1.2877, 0.0229, -0.0139, -0.1149, 765, 115292, 0.9203, 0.9203, -1.4602, 0.0000
12.8010, -0.1177, -0.0785, -9.6105, -0.0051, 0.0083, -0.0032, 0.8575, 0.6642, -1.2908, 0.0223, -0.0152, -0.1144, 766, 115292, 0.9270, 0.9270, -1.4635, 0.0000
12.8210, -0.1177, -0.0785, -9.6105, -0.0051, 0.0083, -0.0032, 0.8631, 0.6701, -1.2941, 0.0219, -0.0176, -0.1128, 767, 115292, 0.9337, 0.9337, -1.4668, 0.0000
12.8410, -0.1177, -0.0785, -9.6105, -0.0051, 0.0083, -0.0032, 0.8689, 0.6760, -1.2974, 0.0217, -0.0192, -0.1119, 768, 115292, 0.9403, 0.9403, -1.4702, 0.0000
12.8610, -0.1177, -0.0785, -9.6105, -0.0051, 0.0083, -0.0032, 0.8747, 0.6818, -1.3005, 0.0212, -0.0205, -0.1103, 769, 115292, 0.9470, 0.9470, -1.4735, 0.0000
12.8810, -0.1177, -0.0785, -9.6105, -0.0051, 0.0083, -0.0032, 0.8802, 0.6877, -1.3038, 0.0212, -0.0206, -0.1086, 770, 115292, 0.9537, 0.9537, -1.4768, 0.0000
12.9110, -0.1177, -0.0785, -9.6105, -0.0051, 0.0083, -0.0032, 0.8860, 0.6934, -1.3069, 0.0213, -0.0203, -0.1079, 771, 115292, 0.9603, 0.9603, -1.4802, 0.0000
12.9310, -0.1177, -0.0785, -9.6105, -0.0051, 0.0083, -0.0032, 0.8918, 0.6991, -1.3101, 0.0212, -0.0211, -0.1077, 772, 115292, 0.9703, 0.9703, -1.4852, 0.0000
12.9410, -0.1177, -0.0785, -9.6105, -0.0051, 0.0083, -0.0032, 0.8974, 0.7049, -1.3133, 0.0211, -0.0217, -0.1077, 773, 115292, 0.9770, 0.9770, -1.4885, 0.0000
12.9610, -0.1177, -0.0785, -9.6105, -0.0051, 0.0083, -0.0032, 0.9032, 0.7107, -1.3164, 0.0212, -0.0230, -0.1073, 774, 115292, 0.9803, 0.9803, -1.4902, 0.0000
12.9810, -0.1177, -0.0785, -9.6105, -0.0051, 0.0083, -0.0032, 0.9089, 0.7164, -1.3196, 0.0210, -0.0230, -0.1065, 775, 115292, 0.9870, 0.9870, -1.4935, 0.0000
13.0010, -0.1177, -0.0785, -9.6105, -0.0051, 0.0083, -0.0032, 0.9146, 0.7221, -1.3229, 0.0205, -0.0239, -0.1056, 776, 115292, 0.9937, 0.9937, -1.4968, 0.0000
13.0210, -0.1177, -0.0785, -9.6105, -0.0051, 0.0083, -0.0032, 0.9204, 0.7278, -1.3259, 0.0203, -0.0247, -0.1056, 777, 115292, 1.0000, 1.0000, -1.5000, 0.0000
13.0410, -0.1177, -0.0785, -9.6105, -0.0051, 0.0083, -0.0032, 0.9261, 0.7335, -1.3292, 0.0200, -0.0253, -0.1048, 778, 115292, 1.0000, 1.0000, -1.5000, 0.0000
13.0610, -0.1177, -0.0785, -9.6105, -0.0051, 0.0083, -0.0032, 0.9317, 0.7392, -1.3321, 0.0201, -0.0259, -0.1046, 779, 115292, 1.0000, 1.0000, -1.5000, 0.0000
13.0810, -0.1177, -0.0785, -9.6105, -0.0051, 0.0083, -0.0032, 0.9376, 0.7449, -1.3354, 0.0203, -0.0252, -0.1043, 780, 115292, 1.0000, 1.0000, -1.5000, 0.0000
13.1010, -0.1177, -0.0785, -9.6105, -0.0051, 0.0083, -0.0032, 0.9435, 0.7505, -1.3386, 0.0203, -0.0256, -0.1035, 781, 115292, 1.0000, 1.0000, -1.5000, 0.0000
13.1210, -0.1177, -0.0785, -9.6105, -0.0051, 0.0083, -0.0032, 0.9492, 0.7562, -1.3415, 0.0203, -0.0249, -0.1038, 782, 115292, 1.0000, 1.0000, -1.5000, 0.0000
13.1410, -0.1177, -0.0785, -9.6105, -0.0051, 0.0083, -0.0032, 0.9552, 0.7618, -1.3448, 0.0199, -0.0254, -0.1034, 783, 115292, 1.0000, 1.0000, -1.5000, 0.0000
13.1610, -0.1177, -0.0785, -9.6105, -0.0051, 0.0083, -0.0032, 0.9612, 0.7674, -1.3479, 0.0199, -0.0252, -0.1033, 784, 115292, 1.0000, 1.0000, -1.5000, 0.0000
13.1810, -0.1177, -0.0785, -9.6105, -0.0051, 0.0083, -0.0032, 0.9669, 0.7731, -1.3508, 0.0202, -0.0254, -0.1040, 785, 115292, 1.0000, 1.0000, -1.5000, 0.0000
13.2010, -0.1177, -0.0785, -9.6105, -0.0051, 0.0083, -0.0032, 0.9729, 0.7787, -1.3540, 0.0199, -0.0249, -0.1041, 786, 115292, 1.0000, 1.0000, -1.5000, 0.0000
13.2210, -0.1177, -0.0785, -9.6105, -0.0051, 0.0083, -0.0032, 0.9788, 0.7843, -1.3569, 0.0205, -0.0238, -0.1049, 787, 115292, 1.0000, 1.0000, -1.5000, 0.0000
13.2510, -0.1177, -0.0785, -9.6105, -0.0051, 0.0083, -0.0032, 0.9849, 0.7900, -1.3600, 0.0206, -0.0229, -0.1053, 788, 115292, 1.0000, 1.0000, -1.5000, 0.0000
13.2610, -0.1177, -0.0785, -9.6105, -0.0051, 0.0083, -0.0032, 0.9909, 0.7955, -1.3630, 0.0206, -0.0215, -0.1060, 789, 115292, 1.0000, 1.0000, -1.5000, 0.0000
13.2810, -0.1177, -0.0785, -9.6105, -0.0051, 0.0083, -0.0032, 0.9968, 0.8011, -1.3659, 0.0209, -0.0203, -0.1075, 790, 115292, 1.0000, 1.0000, -1.5000, 0.0000
13.3010, -0.1177, -0.0785, -9.6105, -0.0051, 0.0083, -0.0032, 1.0026, 0.8068, -1.3687, 0.0208, -0.0189, -0.1078, 791, 115292, 1.0000, 1.0000, -1.5000, 0.0000
13.3310, -0.1177, -0.0785, -9.6105, -0.0051, 0.0083, -0.0032, 1.0085, 0.8123, -1.3715, 0.0212, -0.0170, -0.1076, 792, 115292, 1.0000, 1.0000, -1.5000, 0.0000
13.3410, -0.1177, -0.0785, -9.6105, -0.0051, 0.0083, -0.0032, 1.0145, 0.8180, -1.3746, 0.0217, -0.0146, -0.1082, 793, 115292, 1.0000, 1.0000, -1.5000, 0.0000
13.3710, -0.1177, -0.0785, -9.6105, -0.0051, 0.0083, -0.0032, 1.0204, 0.8235, -1.3774, 0.0220, -0.0126, -0.1094, 794, 115292, 1.0000, 1.0000, -1.5000, 0.0000
13.3810, -0.1177, -0.0785, -9.6105, -0.0051, 0.0083, -0.0032, 1.0263, 0.8289, -1.3802, 0.0221, -0.0103, -0.1109, 795, 115292, 1.0000, 1.0000, -1.5000, 0.0000
13.4010, -0.1177, -0.0785, -9.6105, -0.0051, 0.0083, -0.0032, 1.0322, 0.8344, -1.3829, 0.0229, -0.0083, -0.1121, 796, 115292, 1.0000, 1.0000, -1.5000, 0.0000
13.4310, -0.1177, -0.0785, -9.6105, -0.0051, 0.0083, -0.0032, 1.0379, 0.8398, -1.3855, 0.0234, -0.0028, -0.1153, 797, 115292, 1.0000, 1.0000, -1.5000, 0.0000
13.4510, -0.1177, -0.0785, -9.6105, -0.0051, 0.0083, -0.0032, 1.0434, 0.8451, -1.3881, 0.0239, -0.0001, -0.1176, 798, 115292, 1.0000, 1.0000, -1.5000, 0.0000
13.4710, -0.1177, -0.0785, -9.6105, -0.0051, 0.0083, -0.0032, 1.0491, 0.8504, -1.3906, 0.0245, 0.0017, -0.1186, 799, 115292, 1.0000, 1.0000, -1.5000, 0.0000
13.4810, -0.1177, -0.0785, -9.6105, -0.0051, 0.0083, -0.0032, 1.0546, 0.8557, -1.3930, 0.0243, 0.0034, -0.1185, 800, 115292, 1.0000, 1.0000, -1.5000, 0.0000
13.5010, -0.1177, -0.0785, -9.6105, -0.0051, 0.0083, -0.0032, 1.0602, 0.8611, -1.3955, 0.0244, 0.0049, -0.1191, 801, 115292, 1.0000, 1.0000, -1.5000, 0.0000
13.5210, -0.1177, -0.0785, -9.6105, -0.0051, 0.0083, -0.0032, 1.0657, 0.8662, -1.3981, 0.0247, 0.0059, -0.1188, 802, 115292, 1.0000, 1.0000, -1.5000, 0.0000
13.5410, -0.1177, -0.0785, -9.6105, -0.0051, 0.0083, -0.0032, 1.0710, 0.8713, -1.4004, 0.0250, 0.0070, -0.1200, 803, 115292, 1.0000, 1.0000, -1.5000, 0.0000
13.5610, -0.1177, -0.0785, -9.6105, -0.0051, 0.0083, -0.0032, 1.0762, 0.8765, -1.4028, 0.0250, 0.0082, -0.1203, 804, 115292, 1.0000, 1.0000, -1.5000, 0.0000
13.5810, -0.1177, -0.0785, -9.6105, -0.0051, 0.0083, -0.0032, 1.0813, 0.8814, -1.4052, 0.0252, 0.0096, -0.1205, 805, 115292, 1.0000, 1.0000, -1.5000, 0.0000
13.6110, -0.1177, -0.0785, -9.6105, -0.0051, 0.0083, -0.0032, 1.0863, 0.8865, -1.4076, 0.0257, 0.0106, -0.1212, 806, 115292, 1.0000, 1.0000, -1.5000, 0.0000
13.6310, -0.1177, -0.0785, -9.6105, -0.0051, 0.0083, -0.0032, 1.0913, 0.8913, -1.4099, 0.0258, 0.0116, -0.1211, 807, 115292, 1.0000, 1.0000, -1.5000, 0.0000
13.6410, -0.1177, -0.0785, -9.6105, -0.0051, 0.0083, -0.0032, 1.0961, 0.8961, -1.4121, 0.0260, 0.0132, -0.1219, 808, 115292, 1.0000, 1.0000, -1.5000, 0.0000
13.6710, -0.1177, -0.0785, -9.6105, -0.0051, 0.0083, -0.0032, 1.1005, 0.9008, -1.4140, 0.0269, 0.0204, -0.1256, 809, 115292, 1.0000, 1.0000, -1.5000, 0.0000
13.6910, -0.1177, -0.0785, -9.6105, -0.0051, 0.0083, -0.0032, 1.1045, 0.9052, -1.4166, 0.0282, 0.0305, -0.1306, 810, 115292, 1.0000, 1.0000, -1.5000, 0.0000
13.7110, -0.1177, -0.0785, -9.6105, -0.0051, 0.0083, -0.0032, 1.1089, 0.9098, -1.4188, 0.0288, 0.0346, -0.1323, 811, 115292, 1.0000, 1.0000, -1.5000, 0.0000
13.7210, -0.1177, -0.0785, -9.6105, -0.0051, 0.0083, -0.0032, 1.1131, 0.9141, -1.4213, 0.0288, 0.0347, -0.1333, 812, 115292, 1.0000, 1.0000, -1.5000, 0.0000
13.7510, -0.1177, -0.0785, -9.6105, -0.0051, 0.0083, -0.0032, 1.1170, 0.9186, -1.4235, 0.0286, 0.0338, -0.1336, 813, 115292, 1.0000, 1.0000, -1.5000, 0.0000
13.7610, -0.1177, -0.0785, -9.6105, -0.0051, 0.0083, -0.0032, 1.1208, 0.9228, -1.4259, 0.0281, 0.0325, -0.1336, 814, 115292, 1.0000, 1.0000, -1.5000, 0.0000
13.7810, -0.1177, -0.0785, -9.6105, -0.0051, 0.0083, -0.0032, 1.1245, 0.9269, -1.4281, 0.0279, 0.0311, -0.1335, 815, 115292, 1.0000, 1.0000, -1.5000, 0.0000
13.8110, -0.1177, -0.0785, -9.6105, -0.0051, 0.0083, -0.0032, 1.1282, 0.9309, -1.4303, 0.0276, 0.0315, -0.1336, 816, 115292, 1.0000, 1.0000, -1.5000, 0.0000
13.8310, -0.1177, -0.0785, -9.6105, -0.0051, 0.0083, -0.0032, 1.1313, 0.9348, -1.4323, 0.0275, 0.0314, -0.1342, 817, 115292, 1.0000, 1.0000, -1.5000, 0.0000
13.8410, -0.1177, -0.0785, -9.6105, -0.0051, 0.0083, -0.0032, 1.1343, 0.9385, -1.4342, 0.0270, 0.0316, -0.1349, 818, 115292, 1.0000, 1.0000, -1.5000, 0.0000
13.8610, -0.1177, -0.0785, -9.6105, -0.0051, 0.0083, -0.0032, 1.1374, 0.9424, -1.4363, 0.0270, 0.0309, -0.1344, 819, 115292, 1.0000, 1.0000, -1.5000, 0.0000
13.8860, -0.1177, -0.0785, -9.6105, -0.0051, 0.0083, -0.0032, 1.1401, 0.9459, -1.4381, 0.0267, 0.0304, -0.1345, 820, 115292, 1.0000, 1.0000, -1.5000, 0.0000
13.9060, -0.1177, -0.0785, -9.6105, -0.0051, 0.0083, -0.0032, 1.1427, 0.9494, -1.4399, 0.0264, 0.0310, -0.1350, 821, 115292, 1.0000, 1.0000, -1.5000, 0.0000
13.9260, -0.1177, -0.0785, -9.6105, -0.0051, 0.0083, -0.0032, 1.1452, 0.9528, -1.4417, 0.0257, 0.0296, -0.1357, 822, 115292, 1.0000, 1.0000, -1.5000, 0.0000
13.9460, -0.1177, -0.0785, -9.6105, -0.0051, 0.0083, -0.0032, 1.1475, 0.9561, -1.4434, 0.0256, 0.0286, -0.1360, 823, 115292, 1.0000, 1.0000, -1.5000, 0.0000
13.9660, -0.1177, -0.0785, -9.6105, -0.0051, 0.0083, -0.0032, 1.1497, 0.9591, -1.4450, 0.0255, 0.0273, -0.1363, 824, 115292, 1.0000, 1.0000, -1.5000, 0.0000
13.9860, -0.1177, -0.0785, -9.6105, -0.0051, 0.0083, -0.0032, 1.1515, 0.9623, -1.4466, 0.0251, 0.0270, -0.1371, 825, 115292, 1.0000, 1.0000, -1.5000, 0.0000
14.0060, -0.1177, -0.0785, -9.6105, -0.0051, 0.0083, -0.0032, 1.1534, 0.9652, -1.4481, 0.0248, 0.0267, -0.1375, 826, 115292, 1.0000, 1.0000, -1.5000, 0.0000
14.0260, -0.1177, -0.0785, -9.6105, -0.0051, 0.0083, -0.0032, 1.1548, 0.9679, -1.4494, 0.0244, 0.0261, -0.1373, 827, 115292, 1.0000, 1.0000, -1.5000, 0.0000
14.0460, -0.1177, -0.0785, -9.6105, -0.0051, 0.0083, -0.0032, 1.1565, 0.9707, -1.4508, 0.0245, 0.0256, -0.1370, 828, 115292, 1.0000, 1.0000, -1.5000, 0.0000
14.0660, -0.1177, -0.0785, -9.6105, -0.0051, 0.0083, -0.0032, 1.1577, 0.9731, -1.4519, 0.0245, 0.0290, -0.1411, 829, 115292, 1.0000, 1.0000, -1.5000, 0.0000
14.0860, -0.1177, -0.0785, -9.6105, -0.0051, 0.0083, -0.0032, 1.1587, 0.9754, -1.4532, 0.0249, 0.0311, -0.1444, 830, 115292, 1.0000, 1.0000, -1.5000, 0.0000
14.1060, -0.1177, -0.0785, -9.6105, -0.0051, 0.0083, -0.0032, 1.1600, 0.9778, -1.4540, 0.0250, 0.0300, -0.1451, 831, 115292, 1.0000, 1.0000, -1.5000, 0.0000
14.1260, -0.1177, -0.0785, -9.6105, -0.0051, 0.0083, -0.0032, 1.1609, 0.9799, -1.4551, 0.0242, 0.0267, -0.1440, 832, 115292, 1.0000, 1.0000, -1.5000, 0.0000
14.1460, -0.1177, -0.0785, -9.6105, -0.0051, 0.0083, -0.0032, 1.1618, 0.9821, -1.4560, 0.0236, 0.0241, -0.1422, 833, 115292, 1.0000, 1.0000, -1.5000, 0.0000
14.1660, -0.1177, -0.0785, -9.6105, -0.0051, 0.0083, -0.0032, 1.1625, 0.9839, -1.4570, 0.0231, 0.0219, -0.1411, 834, 115292, 1.0000, 1.0000, -1.5000, 0.0000
14.1860, -0.1177, -0.0785, -9.6105, -0.0051, 0.0083, -0.0032, 1.1631, 0.9859, -1.4580, 0.0226, 0.0192, -0.1404, 835, 115292, 1.0000, 1.0000, -1.5000, 0.0000
14.2060, -0.1177, -0.0785, -9.6105, -0.0051, 0.0083, -0.0032, 1.1636, 0.9875, -1.4588, 0.0221, 0.0172, -0.1395, 836, 115292, 1.0000, 1.0000, -1.5000, 0.0000
14.2260, -0.1177, -0.0785, -9.6105, -0.0051, 0.0083, -0.0032, 1.1638, 0.9891, -1.4597, 0.0215, 0.0156, -0.1385, 837, 115292, 1.0000, 1.0000, -1.5000, 0.0000
14.2490, -0.1177, -0.0785, -9.6105, -0.0051, 0.0083, -0.0032, 1.1643, 0.9906, -1.4608, 0.0214, 0.0141, -0.1374, 838, 115292, 1.0000, 1.0000, -1.5000, 0.0000
14.2690, -0.1177, -0.0785, -9.6105, -0.0051, 0.0083, -0.0032, 1.1643, 0.9920, -1.4616, 0.0214, 0.0124, -0.1371, 839, 115292, 1.0000, 1.0000, -1.5000, 0.0000
14.2890, -0.1177, -0.0785, -9.6105, -0.0051, 0.0083, -0.0032, 1.1645, 0.9933, -1.4624, 0.0210, 0.0106, -0.1366, 840, 115292, 1.0000, 1.0000, -1.5000, 0.0000
14.3090, -0.1177, -0.0785, -9.6105, -0.0051, 0.0083, -0.0032, 1.1645, 0.9944, -1.4633, 0.0203, 0.0082, -0.1352, 841, 115292, 1.0000, 1.0000, -1.5000, 0.0000
14.3290, -0.1177, -0.0785, -9.6105, -0.0051, 0.0083, -0.0032, 1.1644, 0.9954, -1.4641, 0.0198, 0.0054, -0.1345, 842, 115292, 1.0000, 1.0000, -1.5000, 0.0000
14.3490, -0.1177, -0.0785, -9.6105, -0.0051, 0.0083, -0.0032, 1.1645, 0.9965, -1.4652, 0.0190, 0.0040, -0.1340, 843, 115292, 1.0000, 1.0000, -1.5000, 0.0000
14.3690, -0.1177, -0.0785, -9.6105, -0.0051, 0.0083, -0.0032, 1.1643, 0.9974, -1.4659, 0.0192, 0.0028, -0.1330, 844, 115292, 1.0000, 1.0000, -1.5000, 0.0000
14.3890, -0.1177, -0.0785, -9.6105, -0.0051, 0.0083, -0.0032, 1.1641, 0.9983, -1.4667, 0.0189, 0.0008, -0.1326, 845, 115292, 1.0000, 1.0000, -1.5000, 0.0000
14.4110, -0.1177, -0.0785, -9.6105, -0.0051, 0.0083, -0.0032, 1.1640, 0.9989, -1.4676, 0.0184, -0.0003, -0.1318, 846, 115292, 1.0000, 1.0000, -1.5000, 0.0000
14.4310, -0.1177, -0.0785, -9.6105, -0.0051, 0.0083, -0.0032, 1.1637, 0.9997, -1.4684, 0.0185, -0.0022, -0.1316, 847, 115292, 1.0000, 1.0000, -1.5000, 0.0000
14.4510, -0.1177, -0.0785, -9.6105, -0.0051, 0.0083, -0.0032, 1.1634, 1.0001, -1.4692, 0.0179, -0.0033, -0.1320, 848, 115292, 1.0000, 1.0000, -1.5000, 0.0000
14.4710, -0.1177, -0.0785, -9.6105, -0.0051, 0.0083, -0.0032, 1.1631, 1.0006, -1.4698, 0.0175, -0.0040, -0.1318, 849, 115292, 1.0000, 1.0000, -1.5000, 0.0000
14.4910, -0.1177, -0.0785, -9.6105, -0.0051, 0.0083, -0.0032, 1.1629, 1.0012, -1.4707, 0.0177, -0.0048, -0.1307, 850, 115292, 1.0000, 1.0000, -1.5000, 0.0000
14.5110, -0.1177, -0.0785, -9.6105, -0.0051, 0.0083, -0.0032, 1.1626, 1.0014, -1.4715, 0.0175, -0.0056, -0.1292, 851, 115292, 1.0000, 1.0000, -1.5000, 0.0000
14.5310, -0.1177, -0.0785, -9.6105, -0.0051, 0.0083, -0.0032, 1.1624, 1.0018, -1.4722, 0.0174, -0.0069, -0.1279, 852, 115292, 1.0000, 1.0000, -1.5000, 0.0000
14.5510, -0.1177, -0.0785, -9.6105, -0.0051, 0.0083, -0.0032, 1.1622, 1.0021, -1.4730, 0.0171, -0.0077, -0.1281, 853, 115292, 1.0000, 1.0000, -1.5000, 0.0000
14.5710, -0.1177, -0.0785, -9.6105, -0.0051, 0.0083, -0.0032, 1.1619, 1.0022, -1.4738, 0.0168, -0.0093, -0.1271, 854, 115292, 1.0000, 1.0000, -1.5000, 0.0000
14.5910, -0.1177, -0.0785, -9.6105, -0.0051, 0.0083, -0.0032, 1.1616, 1.0024, -1.4744, 0.0167, -0.0103, -0.1259, 855, 115292, 1.0000, 1.0000, -1.5000, 0.0000
14.6110, -0.1177, -0.0785, -9.6105, -0.0051, 0.0083, -0.0032, 1.1613, 1.0025, -1.4753, 0.0167, -0.0113, -0.1250, 856, 115292, 1.0000, 1.0000, -1.5000, 0.0000
14.6310, -0.1177, -0.0785, -9.6105, -0.0051, 0.0083, -0.0032, 1.1612, 1.0025, -1.4759, 0.0165, -0.0126, -0.1241, 857, 115292, 1.0000, 1.0000, -1.5000, 0.0000
14.6510, -0.1177, -0.0785, -9.6105, -0.0051, 0.0083, -0.0032, 1.1610, 1.0026, -1.4767, 0.0165, -0.0141, -0.1235, 858, 115292, 1.0000, 1.0000, -1.5000, 0.0000
14.6710, -0.1177, -0.0785, -9.6105, -0.0051, 0.0083, -0.0032, 1.1607, 1.0026, -1.4774, 0.0162, -0.0157, -0.1233, 859, 115292, 1.0000, 1.0000, -1.5000, 0.0000
14.6910, -0.1177, -0.0785, -9.6105, -0.0051, 0.0083, -0.0032, 1.1606, 1.0025, -1.4782, 0.0160, -0.0170, -0.1225, 860, 115292, 1.0000, 1.0000, -1.5000, 0.0000
14.7110, -0.1177, -0.0785, -9.6105, -0.0051, 0.0083, -0.0032, 1.1605, 1.0023, -1.4789, 0.0160, -0.0182, -0.1220, 861, 115292, 1.0000, 1.0000, -1.5000, 0.0000
14.7310, -0.1177, -0.0785, -9.6105, -0.0051, 0.0083, -0.0032, 1.1605, 1.0022, -1.4796, 0.0161, -0.0186, -0.1210, 862, 115292, 1.0000, 1.0000, -1.5000, 0.0000
14.7510, -0.1177, -0.0785, -9.6105, -0.0051, 0.0083, -0.0032, 1.1603, 1.0021, -1.4803, 0.0157, -0.0192, -0.1210, 863, 115292, 1.0000, 1.0000, -1.5000, 0.0000
14.7710, -0.1177, -0.0785, -9.6105, -0.0051, 0.0083, -0.0032, 1.1604, 1.0019, -1.4811, 0.0160, -0.0203, -0.1201, 864, 115292, 1.0000, 1.0000, -1.5000, 0.0000
14.7910, -0.1177, -0.0785, -9.6105, -0.0051, 0.0083, -0.0032, 1.1604, 1.0017, -1.4817, 0.0162, -0.0209, -0.1193, 865, 115292, 1.0000, 1.0000, -1.5000, 0.0000
14.8110, -0.1177, -0.0785, -9.6105, -0.0051, 0.0083, -0.0032, 1.1605, 1.0014, -1.4824, 0.0160, -0.0217, -0.1187, 866, 115292, 1.0000, 1.0000, -1.5000, 0.0000
14.8310, -0.1177, -0.0785, -9.6105, -0.0051, 0.0083, -0.0032, 1.1606, 1.0012, -1.4830, 0.0158, -0.0218, -0.1181, 867, 115292, 1.0000, 1.0000, -1.5000, 0.0000
14.8510, -0.1177, -0.0785, -9.6105, -0.0051, 0.0083, -0.0032, 1.1607, 1.0010, -1.4836, 0.0159, -0.0220, -0.1174, 868, 115292, 1.0000, 1.0000, -1.5000, 0.0000
14.8710, -0.1177, -0.0785, -9.6105, -0.0051, 0.0083, -0.0032, 1.1611, 1.0008, -1.4845, 0.0160, -0.0219, -0.1161, 869, 115292, 1.0000, 1.0000, -1.5000, 0.0000
14.8910, -0.1177, -0.0785, -9.6105, -0.0051, 0.0083, -0.0032, 1.1614, 1.0006, -1.4850, 0.0162, -0.0215, -0.1150, 870, 115292, 1.0000, 1.0000, -1.5000, 0.0000
14.9110, -0.1177, -0.0785, -9.6105, -0.0051, 0.0083, -0.0032, 1.1616, 1.0003, -1.4857, 0.0165, -0.0219, -0.1145, 871, 115292, 1.0000, 1.0000, -1.5000, 0.0000
14.9310, -0.1177, -0.0785, -9.6105, -0.0051, 0.0083, -0.0032, 1.1620, 1.0001, -1.4863, 0.0162, -0.0219, -0.1144, 872, 115292, 1.0000, 1.0000, -1.5000, 0.0000
14.9510, -0.1177, -0.0785, -9.6105, -0.0051, 0.0083, -0.0032, 1.1625, 0.9999, -1.4868, 0.0162, -0.0223, -0.1126, 873, 115292, 1.0000, 1.0000, -1.5000, 0.0000
14.9710, -0.1177, -0.0785, -9.6105, -0.0051, 0.0083, -0.0032, 1.1629, 0.9997, -1.4876, 0.0165, -0.0212, -0.1117, 874, 115292, 1.0000, 1.0000, -1.5000, 0.0000
14.9910, -0.1177, -0.0785, -9.6105, -0.0051, 0.0083, -0.0032, 1.1636, 0.9995, -1.4881, 0.0169, -0.0209, -0.1105, 875, 115292, 1.0000, 1.0000, -1.5000, 0.0000
15.0110, -0.1177, -0.0785, -9.6105, -0.0051, 0.0083, -0.0032, 1.1640, 0.9993, -1.4887, 0.0168, -0.0202, -0.1102, 876, 115292, 1.0000, 1.0000, -1.5000, 0.0000
15.0310, -0.1177, -0.0785, -9.6105, -0.0051, 0.0083, -0.0032, 1.1647, 0.9991, -1.4894, 0.0170, -0.0197, -0.1096, 877, 115292, 0.9963, 0.9963, -1.4982, 0.0000
15.0510, -0.1177, -0.0785, -9.6105, -0.0051, 0.0083, -0.0032, 1.1655, 0.9989, -1.4899, 0.0170, -0.0190, -0.1088, 878, 115292, 0.9897, 0.9897, -1.4948, 0.0000
15.0710, -0.1177, -0.0785, -9.6105, -0.0051, 0.0083, -0.0032, 1.1659, 0.9987, -1.4905, 0.0168, -0.0175, -0.1082, 879, 115292, 0.9830, 0.9830, -1.4915, 0.0000
15.0910, -0.1177, -0.0785, -9.6105, -0.0051, 0.0083, -0.0032, 1.1666, 0.9986, -1.4909, 0.0173, -0.0159, -0.1074, 880, 115292, 0.9763, 0.9763, -1.4882, 0.0000
15.1110, -0.1177, -0.0785, -9.6105, -0.0051, 0.0083, -0.0032, 1.1675, 0.9986, -1.4915, 0.0181, -0.0140, -0.1062, 881, 115292, 0.9697, 0.9697, -1.4848, 0.0000
15.1310, -0.1177, -0.0785, -9.6105, -0.0051, 0.0083, -0.0032, 1.1682, 0.9984, -1.4921, 0.0180, -0.0131, -0.1065, 882, 115292, 0.9630, 0.9630, -1.4815, 0.0000
15.1510, -0.1177, -0.0785, -9.6105, -0.0051, 0.0083, -0.0032, 1.1689, 0.9984, -1.4925, 0.0178, -0.0128, -0.1068, 883, 115292, 0.9563, 0.9563, -1.4782, 0.0000
15.1710, -0.1177, -0.0785, -9.6105, -0.0051, 0.0083, -0.0032, 1.1698, 0.9983, -1.4931, 0.0178, -0.0121, -0.1059, 884, 115292, 0.9497, 0.9497, -1.4748, 0.0000
15.1910, -0.1177, -0.0785, -9.6105, -0.0051, 0.0083, -0.0032, 1.1706, 0.9984, -1.4936, 0.0180, -0.0112, -0.1060, 885, 115292, 0.9430, 0.9430, -1.4715, 0.0000
15.2110, -0.1177, -0.0785, -9.6105, -0.0051, 0.0083, -0.0032, 1.1714, 0.9985, -1.4939, 0.0181, -0.0079, -0.1055, 886, 115292, 0.9363, 0.9363, -1.4682, 0.0000
