time (s), accel_x (m/s^2), accel_y (m/s^2), accel_z (m/s^2), gyro_x (rad/s), gyro_y (rad/s), gyro_z (rad/s), x (m), y (m), z (m), yaw (rad), pitch (rad), roll (rad), mocap_counter, counter, desired x, desired y, desired z, desired yaw
0.0000, 0.0000, 0.0000, 0.0000, 0.0000, 0.0000, 0.0000, -0.0265, 0.0212, -0.0968, -0.0302, -0.0040, -0.0006, 213, 0, 0.0000, 0.0000, 0.0000, 0.0000
0.0210, 0.0000, 0.0000, 0.0000, 0.0000, 0.0000, 0.0000, -0.0265, 0.0212, -0.0968, -0.0301, -0.0039, -0.0006, 214, 0, 0.0000, 0.0000, 0.0000, 0.0000
0.0410, 0.0000, 0.0000, 0.0000, 0.0000, 0.0000, 0.0000, -0.0265, 0.0213, -0.0967, -0.0301, -0.0041, -0.0009, 215, 0, 0.0000, 0.0000, 0.0000, 0.0000
0.0610, 0.0000, 0.0000, 0.0000, 0.0000, 0.0000, 0.0000, -0.0265, 0.0212, -0.0968, -0.0301, -0.0039, -0.0006, 216, 0, 0.0000, 0.0000, 0.0000, 0.0000
0.0810, 0.0000, 0.0000, 0.0000, 0.0000, 0.0000, 0.0000, -0.0265, 0.0212, -0.0968, -0.0301, -0.0040, -0.0007, 217, 0, 0.0000, 0.0000, 0.0000, 0.0000
0.1010, 0.0000, 0.0000, 0.0000, 0.0000, 0.0000, 0.0000, -0.0265, 0.0212, -0.0968, -0.0302, -0.0040, -0.0007, 218, 0, 0.0000, 0.0000, 0.0000, 0.0000
0.1210, 0.0000, 0.0000, 0.0000, 0.0000, 0.0000, 0.0000, -0.0265, 0.0212, -0.0967, -0.0302, -0.0039, -0.0008, 219, 0, 0.0000, 0.0000, 0.0000, 0.0000
0.1400, 0.0000, 0.0000, 0.0000, 0.0000, 0.0000, 0.0000, -0.0264, 0.0212, -0.0968, -0.0301, -0.0040, -0.0007, 220, 0, 0.0000, 0.0000, 0.0000, 0.0000
0.1610, 0.0000, 0.0000, 0.0000, 0.0000, 0.0000, 0.0000, -0.0265, 0.0212, -0.0968, -0.0302, -0.0039, -0.0007, 221, 0, 0.0000, 0.0000, 0.0000, 0.0000
0.1810, 0.0000, 0.0000, 0.0000, 0.0000, 0.0000, 0.0000, -0.0265, 0.0212, -0.0968, -0.0301, -0.0039, -0.0007, 222, 0, 0.0000, 0.0000, 0.0000, 0.0000
0.2010, 0.0000, 0.0000, 0.0000, 0.0000, 0.0000, 0.0000, -0.0265, 0.0212, -0.0968, -0.0302, -0.0041, -0.0006, 223, 0, 0.0000, 0.0000, 0.0000, 0.0000
0.2210, 0.0000, 0.0000, 0.0000, 0.0000, 0.0000, 0.0000, -0.0265, 0.0212, -0.0967, -0.0301, -0.0039, -0.0008, 224, 0, 0.0000, 0.0000, 0.0000, 0.0000
0.2410, 0.0000, 0.0000, 0.0000, 0.0000, 0.0000, 0.0000, -0.0265, 0.0212, -0.0968, -0.0301, -0.0040, -0.0007, 225, 0, 0.0000, 0.0000, 0.0000, 0.0000
0.2610, 0.0000, 0.0000, 0.0000, 0.0000, 0.0000, 0.0000, -0.0265, 0.0212, -0.0968, -0.0302, -0.0039, -0.0007, 226, 0, 0.0000, 0.0000, 0.0000, 0.0000
0.2810, 0.0000, 0.0000, 0.0000, 0.0000, 0.0000, 0.0000, -0.0265, 0.0212, -0.0968, -0.0302, -0.0039, -0.0007, 227, 0, 0.0000, 0.0000, 0.0000, 0.0000
0.3010, 0.0000, 0.0000, 0.0000, 0.0000, 0.0000, 0.0000, -0.0264, 0.0212, -0.0968, -0.0302, -0.0040, -0.0006, 228, 0, 0.0000, 0.0000, 0.0000, 0.0000
0.3210, 0.0000, 0.0000, 0.0000, 0.0000, 0.0000, 0.0000, -0.0266, 0.0212, -0.0967, -0.0301, -0.0040, -0.0009, 229, 0, 0.0000, 0.0000, 0.0000, 0.0000
0.3400, 0.0000, 0.0000, 0.0000, 0.0000, 0.0000, 0.0000, -0.0264, 0.0212, -0.0968, -0.0301, -0.0040, -0.0006, 230, 0, 0.0000, 0.0000, 0.0000, 0.0000
0.3610, 0.0000, 0.0000, 0.0000, 0.0000, 0.0000, 0.0000, -0.0265, 0.0212, -0.0967, -0.0302, -0.0039, -0.0008, 231, 0, 0.0000, 0.0000, 0.0000, 0.0000
0.3810, 0.0000, 0.0000, 0.0000, 0.0000, 0.0000, 0.0000, -0.0265, 0.0212, -0.0968, -0.0301, -0.0040, -0.0005, 232, 0, 0.0000, 0.0000, 0.0000, 0.0000
0.4010, 0.0000, 0.0000, 0.0000, 0.0000, 0.0000, 0.0000, -0.0265, 0.0212, -0.0967, -0.0302, -0.0040, -0.0010, 233, 0, 0.0000, 0.0000, 0.0000, 0.0000
0.4210, 0.0000, 0.0000, 0.0000, 0.0000, 0.0000, 0.0000, -0.0265, 0.0212, -0.0968, -0.0302, -0.0040, -0.0006, 234, 0, 0.0000, 0.0000, 0.0000, 0.0000
0.4410, 0.0000, 0.0000, 0.0000, 0.0000, 0.0000, 0.0000, -0.0265, 0.0212, -0.0968, -0.0300, -0.0040, -0.0006, 235, 0, 0.0000, 0.0000, 0.0000, 0.0000
0.4610, 0.0000, 0.0000, 0.0000, 0.0000, 0.0000, 0.0000, -0.0265, 0.0213, -0.0967, -0.0302, -0.0040, -0.0009, 236, 0, 0.0000, 0.0000, 0.0000, 0.0000
0.4810, 0.0000, 0.0000, 0.0000, 0.0000, 0.0000, 0.0000, -0.0265, 0.0212, -0.0969, -0.0302, -0.0040, -0.0007, 237, 0, 0.0000, 0.0000, 0.0000, 0.0000
0.5010, 0.0000, 0.0000, 0.0000, 0.0000, 0.0000, 0.0000, -0.0265, 0.0212, -0.0967, -0.0301, -0.0041, -0.0010, 238, 0, 0.0000, 0.0000, 0.0000, 0.0000
0.5210, 0.0000, 0.0000, 0.0000, 0.0000, 0.0000, 0.0000, -0.0265, 0.0212, -0.0968, -0.0301, -0.0040, -0.0007, 239, 0, 0.0000, 0.0000, 0.0000, 0.0000
0.5410, 0.0000, 0.0000, 0.0000, 0.0000, 0.0000, 0.0000, -0.0265, 0.0212, -0.0968, -0.0301, -0.0040, -0.0007, 240, 0, 0.0000, 0.0000, 0.0000, 0.0000
0.5610, 0.0000, 0.0000, 0.0000, 0.0000, 0.0000, 0.0000, -0.0265, 0.0212, -0.0968, -0.0302, -0.0040, -0.0006, 241, 0, 0.0000, 0.0000, 0.0000, 0.0000
0.5810, 0.0000, 0.0000, 0.0000, 0.0000, 0.0000, 0.0000, -0.0265, 0.0212, -0.0968, -0.0302, -0.0040, -0.0006, 242, 0, 0.0000, 0.0000, 0.0000, 0.0000
0.6010, 0.0000, 0.0000, 0.0000, 0.0000, 0.0000, 0.0000, -0.0265, 0.0212, -0.0967, -0.0301, -0.0039, -0.0009, 243, 0, 0.0000, 0.0000, 0.0000, 0.0000
0.6210, 0.0000, 0.0000, 0.0000, 0.0000, 0.0000, 0.0000, -0.0265, 0.0212, -0.0968, -0.0302, -0.0040, -0.0007, 244, 0, 0.0000, 0.0000, 0.0000, 0.0000
0.6400, 0.0000, 0.0000, 0.0000, 0.0000, 0.0000, 0.0000, -0.0265, 0.0212, -0.0968, -0.0302, -0.0039, -0.0007, 245, 0, 0.0000, 0.0000, 0.0000, 0.0000
0.6610, 0.0000, 0.0000, 0.0000, 0.0000, 0.0000, 0.0000, -0.0265, 0.0212, -0.0968, -0.0301, -0.0041, -0.0009, 246, 0, 0.0000, 0.0000, 0.0000, 0.0000
0.6810, 0.0000, 0.0000, 0.0000, 0.0000, 0.0000, 0.0000, -0.0265, 0.0213, -0.0968, -0.0302, -0.0039, -0.0007, 247, 0, 0.0000, 0.0000, 0.0000, 0.0000
0.7010, 0.0000, 0.0000, 0.0000, 0.0000, 0.0000, 0.0000, -0.0265, 0.0212, -0.0968, -0.0301, -0.0040, -0.0007, 248, 0, 0.0000, 0.0000, 0.0000, 0.0000
0.7210, 0.0000, 0.0000, 0.0000, 0.0000, 0.0000, 0.0000, -0.0264, 0.0212, -0.0968, -0.0302, -0.0039, -0.0008, 249, 0, 0.0000, 0.0000, 0.0000, 0.0000
0.7400, 0.0000, 0.0000, 0.0000, 0.0000, 0.0000, 0.0000, -0.0266, 0.0212, -0.0968, -0.0301, -0.0039, -0.0007, 250, 0, 0.0000, 0.0000, 0.0000, 0.0000
0.7610, 0.0000, 0.0000, 0.0000, 0.0000, 0.0000, 0.0000, -0.0265, 0.0212, -0.0968, -0.0302, -0.0040, -0.0007, 251, 0, 0.0000, 0.0000, 0.0000, 0.0000
0.7810, 0.0000, 0.0000, 0.0000, 0.0000, 0.0000, 0.0000, -0.0265, 0.0212, -0.0968, -0.0301, -0.0042, -0.0008, 252, 0, 0.0000, 0.0000, 0.0000, 0.0000
0.8010, 0.0000, 0.0000, 0.0000, 0.0000, 0.0000, 0.0000, -0.0265, 0.0212, -0.0968, -0.0301, -0.0040, -0.0006, 253, 0, 0.0000, 0.0000, 0.0000, 0.0000
0.8210, 0.0000, 0.0000, 0.0000, 0.0000, 0.0000, 0.0000, -0.0265, 0.0212, -0.0968, -0.0301, -0.0040, -0.0008, 254, 0, 0.0000, 0.0000, 0.0000, 0.0000
0.8410, 0.0000, 0.0000, 0.0000, 0.0000, 0.0000, 0.0000, -0.0265, 0.0212, -0.0968, -0.0302, -0.0038, -0.0007, 255, 0, 0.0000, 0.0000, 0.0000, 0.0000
0.8610, 0.0000, 0.0000, 0.0000, 0.0000, 0.0000, 0.0000, -0.0265, 0.0212, -0.0968, -0.0302, -0.0042, -0.0006, 256, 0, 0.0000, 0.0000, 0.0000, 0.0000
0.8810, 0.0000, 0.0000, 0.0000, 0.0000, 0.0000, 0.0000, -0.0265, 0.0212, -0.0967, -0.0301, -0.0040, -0.0007, 257, 0, 0.0000, 0.0000, 0.0000, 0.0000
0.9010, 0.0000, 0.0000, 0.0000, 0.0000, 0.0000, 0.0000, -0.0265, 0.0212, -0.0968, -0.0302, -0.0039, -0.0008, 258, 0, 0.0000, 0.0000, 0.0000, 0.0000
0.9210, 0.0000, 0.0000, 0.0000, 0.0000, 0.0000, 0.0000, -0.0265, 0.0212, -0.0968, -0.0301, -0.0041, -0.0007, 259, 0, 0.0000, 0.0000, 0.0000, 0.0000
0.9410, 0.0000, 0.0000, 0.0000, 0.0000, 0.0000, 0.0000, -0.0266, 0.0212, -0.0967, -0.0302, -0.0040, -0.0006, 260, 0, 0.0000, 0.0000, 0.0000, 0.0000
0.9610, 0.0000, 0.0000, 0.0000, 0.0000, 0.0000, 0.0000, -0.0265, 0.0212, -0.0968, -0.0301, -0.0040, -0.0006, 261, 0, 0.0000, 0.0000, 0.0000, 0.0000
0.9810, 0.0000, 0.0000, 0.0000, 0.0000, 0.0000, 0.0000, -0.0265, 0.0212, -0.0967, -0.0301, -0.0041, -0.0008, 262, 0, 0.0000, 0.0000, 0.0000, 0.0000
1.0010, 0.0000, 0.0000, 0.0000, 0.0000, 0.0000, 0.0000, -0.0265, 0.0212, -0.0968, -0.0302, -0.0040, -0.0007, 263, 0, 0.0000, 0.0000, 0.0000, 0.0000
1.0210, 0.0000, 0.0000, 0.0000, 0.0000, 0.0000, 0.0000, -0.0265, 0.0212, -0.0968, -0.0301, -0.0040, -0.0007, 264, 0, 0.0000, 0.0000, 0.0000, 0.0000
1.0410, 0.0000, 0.0000, 0.0000, 0.0000, 0.0000, 0.0000, -0.0265, 0.0212, -0.0967, -0.0302, -0.0041, -0.0006, 265, 0, 0.0000, 0.0000, 0.0000, 0.0000
1.0610, 0.0000, 0.0000, 0.0000, 0.0000, 0.0000, 0.0000, -0.0265, 0.0212, -0.0968, -0.0302, -0.0040, -0.0008, 266, 0, 0.0000, 0.0000, 0.0000, 0.0000
1.0810, 0.0000, 0.0000, 0.0000, 0.0000, 0.0000, 0.0000, -0.0265, 0.0212, -0.0967, -0.0301, -0.0040, -0.0007, 267, 0, 0.0000, 0.0000, 0.0000, 0.0000
1.1010, 0.0000, 0.0000, 0.0000, 0.0000, 0.0000, 0.0000, -0.0265, 0.0212, -0.0969, -0.0301, -0.0040, -0.0007, 268, 0, 0.0000, 0.0000, 0.0000, 0.0000
1.1210, 0.0000, 0.0000, 0.0000, 0.0000, 0.0000, 0.0000, -0.0265, 0.0212, -0.0968, -0.0301, -0.0040, -0.0006, 269, 0, 0.0000, 0.0000, 0.0000, 0.0000
1.1400, 0.0000, 0.0000, 0.0000, 0.0000, 0.0000, 0.0000, -0.0265, 0.0212, -0.0968, -0.0302, -0.0040, -0.0007, 270, 0, 0.0000, 0.0000, 0.0000, 0.0000
1.1610, 0.0000, 0.0000, 0.0000, 0.0000, 0.0000, 0.0000, -0.0265, 0.0212, -0.0969, -0.0301, -0.0040, -0.0007, 271, 0, 0.0000, 0.0000, 0.0000, 0.0000
1.1810, 0.0000, 0.0000, 0.0000, 0.0000, 0.0000, 0.0000, -0.0265, 0.0212, -0.0967, -0.0301, -0.0041, -0.0007, 272, 0, 0.0000, 0.0000, 0.0000, 0.0000
1.2010, 0.0000, 0.0000, 0.0000, 0.0000, 0.0000, 0.0000, -0.0265, 0.0212, -0.0969, -0.0302, -0.0039, -0.0007, 273, 0, 0.0000, 0.0000, 0.0000, 0.0000
1.2210, 0.0000, 0.0000, 0.0000, 0.0000, 0.0000, 0.0000, -0.0265, 0.0212, -0.0968, -0.0301, -0.0040, -0.0007, 274, 0, 0.0000, 0.0000, 0.0000, 0.0000
1.2410, 0.0000, 0.0000, 0.0000, 0.0000, 0.0000, 0.0000, -0.0265, 0.0212, -0.0968, -0.0301, -0.0041, -0.0007, 275, 0, 0.0000, 0.0000, 0.0000, 0.0000
1.2610, 0.0000, 0.0000, 0.0000, 0.0000, 0.0000, 0.0000, -0.0265, 0.0212, -0.0968, -0.0301, -0.0039, -0.0007, 276, 0, 0.0000, 0.0000, 0.0000, 0.0000
1.2810, 0.0000, 0.0000, 0.0000, 0.0000, 0.0000, 0.0000, -0.0265, 0.0212, -0.0967, -0.0302, -0.0040, -0.0007, 277, 0, 0.0000, 0.0000, 0.0000, 0.0000
1.3010, 0.0000, 0.0000, 0.0000, 0.0000, 0.0000, 0.0000, -0.0265, 0.0212, -0.0968, -0.0302, -0.0040, -0.0007, 278, 0, 0.0000, 0.0000, 0.0000, 0.0000
1.3210, 0.0000, 0.0000, 0.0000, 0.0000, 0.0000, 0.0000, -0.0265, 0.0212, -0.0968, -0.0300, -0.0039, -0.0006, 279, 0, 0.0000, 0.0000, 0.0000, 0.0000
1.3410, 0.0000, 0.0000, 0.0000, 0.0000, 0.0000, 0.0000, -0.0264, 0.0212, -0.0968, -0.0302, -0.0041, -0.0007, 280, 0, 0.0000, 0.0000, 0.0000, 0.0000
1.3610, 0.0000, 0.0000, 0.0000, 0.0000, 0.0000, 0.0000, -0.0265, 0.0212, -0.0968, -0.0301, -0.0040, -0.0006, 281, 0, 0.0000, 0.0000, 0.0000, 0.0000
1.3810, 0.0000, 0.0000, 0.0000, 0.0000, 0.0000, 0.0000, -0.0265, 0.0212, -0.0968, -0.0302, -0.0040, -0.0008, 282, 0, 0.0000, 0.0000, 0.0000, 0.0000
1.4010, 0.0000, 0.0000, 0.0000, 0.0000, 0.0000, 0.0000, -0.0265, 0.0212, -0.0968, -0.0301, -0.0039, -0.0007, 283, 0, 0.0000, 0.0000, 0.0000, 0.0000
1.4210, 0.0000, 0.0000, 0.0000, 0.0000, 0.0000, 0.0000, -0.0265, 0.0212, -0.0968, -0.0301, -0.0039, -0.0007, 284, 0, 0.0000, 0.0000, 0.0000, 0.0000
1.4400, 0.0000, 0.0000, 0.0000, 0.0000, 0.0000, 0.0000, -0.0264, 0.0212, -0.0968, -0.0303, -0.0039, -0.0007, 285, 0, 0.0000, 0.0000, 0.0000, 0.0000
1.4610, 0.0000, 0.0000, 0.0000, 0.0000, 0.0000, 0.0000, -0.0265, 0.0212, -0.0967, -0.0301, -0.0039, -0.0007, 286, 0, 0.0000, 0.0000, 0.0000, 0.0000
1.4810, 0.0000, 0.0000, 0.0000, 0.0000, 0.0000, 0.0000, -0.0265, 0.0212, -0.0968, -0.0301, -0.0040, -0.0006, 287, 0, 0.0000, 0.0000, 0.0000, 0.0000
1.5010, 0.0000, 0.0000, 0.0000, 0.0000, 0.0000, 0.0000, -0.0265, 0.0212, -0.0967, -0.0301, -0.0040, -0.0006, 288, 0, 0.0000, 0.0000, 0.0000, 0.0000
1.5210, 0.0000, 0.0000, 0.0000, 0.0000, 0.0000, 0.0000, -0.0265, 0.0212, -0.0968, -0.0303, -0.0040, -0.0007, 289, 0, 0.0000, 0.0000, 0.0000, 0.0000
1.5400, 0.0000, 0.0000, 0.0000, 0.0000, 0.0000, 0.0000, -0.0265, 0.0212, -0.0968, -0.0302, -0.0041, -0.0008, 290, 0, 0.0000, 0.0000, 0.0000, 0.0000
1.5610, 0.0000, 0.0000, 0.0000, 0.0000, 0.0000, 0.0000, -0.0266, 0.0212, -0.0967, -0.0302, -0.0040, -0.0007, 291, 0, 0.0000, 0.0000, 0.0000, 0.0000
1.5810, 0.0000, 0.0000, 0.0000, 0.0000, 0.0000, 0.0000, -0.0265, 0.0212, -0.0968, -0.0303, -0.0040, -0.0008, 292, 0, 0.0000, 0.0000, 0.0000, 0.0000
1.6010, 0.0000, 0.0000, 0.0000, 0.0000, 0.0000, 0.0000, -0.0266, 0.0212, -0.0967, -0.0302, -0.0040, -0.0008, 293, 0, 0.0000, 0.0000, 0.0000, 0.0000
1.6210, 0.0000, 0.0000, 0.0000, 0.0000, 0.0000, 0.0000, -0.0265, 0.0212, -0.0968, -0.0302, -0.0039, -0.0007, 294, 0, 0.0000, 0.0000, 0.0000, 0.0000
1.6410, 0.0000, 0.0000, 0.0000, 0.0000, 0.0000, 0.0000, -0.0265, 0.0212, -0.0968, -0.0301, -0.0040, -0.0007, 295, 0, 0.0000, 0.0000, 0.0000, 0.0000
1.6610, 0.0000, 0.0000, 0.0000, 0.0000, 0.0000, 0.0000, -0.0266, 0.0212, -0.0967, -0.0301, -0.0041, -0.0007, 296, 0, 0.0000, 0.0000, 0.0000, 0.0000
1.6810, 0.0000, 0.0000, 0.0000, 0.0000, 0.0000, 0.0000, -0.0265, 0.0212, -0.0968, -0.0303, -0.0039, -0.0009, 297, 0, 0.0000, 0.0000, 0.0000, 0.0000
1.7010, 0.0000, 0.0000, 0.0000, 0.0000, 0.0000, 0.0000, -0.0266, 0.0212, -0.0967, -0.0302, -0.0042, -0.0007, 298, 0, 0.0000, 0.0000, 0.0000, 0.0000
1.7210, 0.0000, 0.0000, 0.0000, 0.0000, 0.0000, 0.0000, -0.0265, 0.0212, -0.0969, -0.0303, -0.0040, -0.0007, 299, 0, 0.0000, 0.0000, 0.0000, 0.0000
1.7410, 0.0000, 0.0000, 0.0000, 0.0000, 0.0000, 0.0000, -0.0266, 0.0212, -0.0967, -0.0302, -0.0040, -0.0007, 300, 0, 0.0000, 0.0000, 0.0000, 0.0000
1.7610, 0.0000, 0.0000, 0.0000, 0.0000, 0.0000, 0.0000, -0.0265, 0.0212, -0.0968, -0.0303, -0.0039, -0.0007, 301, 0, 0.0000, 0.0000, 0.0000, 0.0000
1.7810, 0.0000, 0.0000, 0.0000, 0.0000, 0.0000, 0.0000, -0.0265, 0.0212, -0.0968, -0.0303, -0.0040, -0.0008, 302, 0, 0.0000, 0.0000, 0.0000, 0.0000
1.8010, 0.0000, 0.0000, 0.0000, 0.0000, 0.0000, 0.0000, -0.0265, 0.0212, -0.0967, -0.0302, -0.0040, -0.0008, 303, 0, 0.0000, 0.0000, 0.0000, 0.0000
1.8210, 0.0000, 0.0000, 0.0000, 0.0000, 0.0000, 0.0000, -0.0265, 0.0211, -0.0969, -0.0303, -0.0041, -0.0007, 304, 0, 0.0000, 0.0000, 0.0000, 0.0000
1.8410, 0.0000, 0.0000, 0.0000, 0.0000, 0.0000, 0.0000, -0.0266, 0.0212, -0.0968, -0.0302, -0.0040, -0.0008, 305, 0, 0.0000, 0.0000, 0.0000, 0.0000
1.8610, 0.0000, 0.0000, 0.0000, 0.0000, 0.0000, 0.0000, -0.0265, 0.0212, -0.0968, -0.0302, -0.0042, -0.0007, 306, 0, 0.0000, 0.0000, 0.0000, 0.0000
1.8810, 0.0000, 0.0000, 0.0000, 0.0000, 0.0000, 0.0000, -0.0265, 0.0212, -0.0968, -0.0304, -0.0039, -0.0008, 307, 0, 0.0000, 0.0000, 0.0000, 0.0000
1.9010, 0.0000, 0.0000, 0.0000, 0.0000, 0.0000, 0.0000, -0.0265, 0.0212, -0.0968, -0.0301, -0.0042, -0.0007, 308, 0, 0.0000, 0.0000, 0.0000, 0.0000
1.9210, 0.0000, 0.0000, 0.0000, 0.0000, 0.0000, 0.0000, -0.0265, 0.0212, -0.0968, -0.0303, -0.0041, -0.0007, 309, 0, 0.0000, 0.0000, 0.0000, 0.0000
1.9410, 0.0000, 0.0000, 0.0000, 0.0000, 0.0000, 0.0000, -0.0266, 0.0212, -0.0967, -0.0301, -0.0039, -0.0007, 310, 0, 0.0000, 0.0000, 0.0000, 0.0000
1.9610, 0.0000, 0.0000, 0.0000, 0.0000, 0.0000, 0.0000, -0.0265, 0.0212, -0.0968, -0.0303, -0.0041, -0.0008, 311, 0, 0.0000, 0.0000, 0.0000, 0.0000
1.9810, 0.0000, 0.0000, 0.0000, 0.0000, 0.0000, 0.0000, -0.0266, 0.0212, -0.0968, -0.0303, -0.0039, -0.0008, 312, 0, 0.0000, 0.0000, 0.0000, 0.0000
2.0010, 0.0000, 0.0000, 0.0000, 0.0000, 0.0000, 0.0000, -0.0265, 0.0212, -0.0968, -0.0302, -0.0040, -0.0007, 313, 0, 0.0000, 0.0000, 0.0000, 0.0000
2.0210, 0.0000, 0.0000, 0.0000, 0.0000, 0.0000, 0.0000, -0.0265, 0.0212, -0.0968, -0.0303, -0.0040, -0.0006, 314, 0, 0.0000, 0.0000, 0.0000, 0.0000
2.0400, 0.0000, 0.0000, 0.0000, 0.0000, 0.0000, 0.0000, -0.0265, 0.0212, -0.0968, -0.0302, -0.0039, -0.0008, 315, 0, 0.0000, 0.0000, 0.0000, 0.0000
2.0610, 0.0000, 0.0000, 0.0000, 0.0000, 0.0000, 0.0000, -0.0265, 0.0212, -0.0968, -0.0302, -0.0039, -0.0006, 316, 0, 0.0000, 0.0000, 0.0000, 0.0000
2.0810, 0.0000, 0.0000, 0.0000, 0.0000, 0.0000, 0.0000, -0.0266, 0.0212, -0.0967, -0.0301, -0.0040, -0.0008, 317, 0, 0.0000, 0.0000, 0.0000, 0.0000
2.1010, 0.0000, 0.0000, 0.0000, 0.0000, 0.0000, 0.0000, -0.0265, 0.0212, -0.0968, -0.0302, -0.0041, -0.0007, 318, 0, 0.0000, 0.0000, 0.0000, 0.0000
2.1210, 0.0000, 0.0000, 0.0000, 0.0000, 0.0000, 0.0000, -0.0265, 0.0212, -0.0968, -0.0302, -0.0040, -0.0007, 319, 0, 0.0000, 0.0000, 0.0000, 0.0000
2.1400, 0.0000, 0.0000, 0.0000, 0.0000, 0.0000, 0.0000, -0.0265, 0.0212, -0.0968, -0.0302, -0.0040, -0.0007, 320, 0, 0.0000, 0.0000, 0.0000, 0.0000
2.1610, 0.0000, 0.0000, 0.0000, 0.0000, 0.0000, 0.0000, -0.0265, 0.0212, -0.0968, -0.0302, -0.0040, -0.0006, 321, 0, 0.0000, 0.0000, 0.0000, 0.0000
2.1810, 0.0000, 0.0000, 0.0000, 0.0000, 0.0000, 0.0000, -0.0265, 0.0212, -0.0967, -0.0301, -0.0039, -0.0007, 322, 0, 0.0000, 0.0000, 0.0000, 0.0000
2.2010, 0.0000, 0.0000, 0.0000, 0.0000, 0.0000, 0.0000, -0.0265, 0.0212, -0.0968, -0.0302, -0.0040, -0.0007, 323, 0, 0.0000, 0.0000, 0.0000, 0.0000
2.2210, 0.0000, 0.0000, 0.0000, 0.0000, 0.0000, 0.0000, -0.0265, 0.0212, -0.0968, -0.0301, -0.0040, -0.0008, 324, 0, 0.0000, 0.0000, 0.0000, 0.0000
2.2400, 0.0000, 0.0000, 0.0000, 0.0000, 0.0000, 0.0000, -0.0265, 0.0212, -0.0968, -0.0301, -0.0039, -0.0007, 325, 0, 0.0000, 0.0000, 0.0000, 0.0000
2.2610, 0.0000, 0.0000, 0.0000, 0.0000, 0.0000, 0.0000, -0.0265, 0.0212, -0.0968, -0.0302, -0.0039, -0.0007, 326, 0, 0.0000, 0.0000, 0.0000, 0.0000
2.2810, 0.0000, 0.0000, 0.0000, 0.0000, 0.0000, 0.0000, -0.0265, 0.0213, -0.0967, -0.0301, -0.0041, -0.0010, 327, 0, 0.0000, 0.0000, 0.0000, 0.0000
2.3010, 0.0000, 0.0000, 0.0000, 0.0000, 0.0000, 0.0000, -0.0265, 0.0213, -0.0969, -0.0302, -0.0040, -0.0009, 328, 0, 0.0000, 0.0000, 0.0000, 0.0000
2.3210, 0.0000, 0.0000, 0.0000, 0.0000, 0.0000, 0.0000, -0.0265, 0.0212, -0.0967, -0.0302, -0.0041, -0.0009, 329, 0, 0.0000, 0.0000, 0.0000, 0.0000
2.3410, 0.0000, 0.0000, 0.0000, 0.0000, 0.0000, 0.0000, -0.0265, 0.0212, -0.0969, -0.0302, -0.0039, -0.0007, 330, 0, 0.0000, 0.0000, 0.0000, 0.0000
2.3610, 0.0000, 0.0000, 0.0000, 0.0000, 0.0000, 0.0000, -0.0265, 0.0212, -0.0968, -0.0301, -0.0040, -0.0009, 331, 0, 0.0000, 0.0000, 0.0000, 0.0000
2.3810, 0.0000, 0.0000, 0.0000, 0.0000, 0.0000, 0.0000, -0.0265, 0.0212, -0.0968, -0.0301, -0.0040, -0.0009, 332, 0, 0.0000, 0.0000, 0.0000, 0.0000
2.4010, 0.0000, 0.0000, 0.0000, 0.0000, 0.0000, 0.0000, -0.0265, 0.0212, -0.0968, -0.0302, -0.0040, -0.0009, 333, 0, 0.0000, 0.0000, 0.0000, 0.0000
2.4210, 0.0000, 0.0000, 0.0000, 0.0000, 0.0000, 0.0000, -0.0265, 0.0212, -0.0967, -0.0302, -0.0041, -0.0008, 334, 0, 0.0000, 0.0000, 0.0000, 0.0000
2.4400, 0.0000, 0.0000, 0.0000, 0.0000, 0.0000, 0.0000, -0.0265, 0.0212, -0.0968, -0.0302, -0.0040, -0.0009, 335, 0, 0.0000, 0.0000, 0.0000, 0.0000
2.4610, 0.0000, 0.0000, 0.0000, 0.0000, 0.0000, 0.0000, -0.0265, 0.0212, -0.0967, -0.0303, -0.0039, -0.0009, 336, 0, 0.0000, 0.0000, 0.0000, 0.0000
2.4810, 0.0000, 0.0000, 0.0000, 0.0000, 0.0000, 0.0000, -0.0265, 0.0212, -0.0968, -0.0302, -0.0042, -0.0008, 337, 0, 0.0000, 0.0000, 0.0000, 0.0000
2.5010, 0.0000, 0.0000, 0.0000, 0.0000, 0.0000, 0.0000, -0.0265, 0.0212, -0.0968, -0.0302, -0.0039, -0.0008, 338, 0, 0.0000, 0.0000, 0.0000, 0.0000
2.5210, 0.0000, 0.0000, 0.0000, 0.0000, 0.0000, 0.0000, -0.0265, 0.0212, -0.0968, -0.0302, -0.0040, -0.0008, 339, 0, 0.0000, 0.0000, 0.0000, 0.0000
2.5410, 0.0000, 0.0000, 0.0000, 0.0000, 0.0000, 0.0000, -0.0265, 0.0212, -0.0968, -0.0304, -0.0040, -0.0007, 340, 0, 0.0000, 0.0000, 0.0000, 0.0000
2.5610, 0.0000, 0.0000, 0.0000, 0.0000, 0.0000, 0.0000, -0.0266, 0.0212, -0.0967, -0.0302, -0.0039, -0.0008, 341, 0, 0.0000, 0.0000, 0.0000, 0.0000
2.5810, 0.0000, 0.0000, 0.0000, 0.0000, 0.0000, 0.0000, -0.0265, 0.0212, -0.0968, -0.0303, -0.0041, -0.0007, 342, 0, 0.0000, 0.0000, 0.0000, 0.0000
2.6010, 0.0000, 0.0000, 0.0000, 0.0000, 0.0000, 0.0000, -0.0265, 0.0212, -0.0968, -0.0303, -0.0039, -0.0008, 343, 0, 0.0000, 0.0000, 0.0000, 0.0000
2.6210, 0.0000, 0.0000, 0.0000, 0.0000, 0.0000, 0.0000, -0.0265, 0.0212, -0.0967, -0.0303, -0.0039, -0.0008, 344, 0, 0.0000, 0.0000, 0.0000, 0.0000
2.6410, 0.0000, 0.0000, 0.0000, 0.0000, 0.0000, 0.0000, -0.0265, 0.0212, -0.0968, -0.0303, -0.0041, -0.0006, 345, 0, 0.0000, 0.0000, 0.0000, 0.0000
2.6610, 0.0000, 0.0000, 0.0000, 0.0000, 0.0000, 0.0000, -0.0266, 0.0212, -0.0968, -0.0302, -0.0040, -0.0009, 346, 0, 0.0000, 0.0000, 0.0000, 0.0000
2.6810, 0.0000, 0.0000, 0.0000, 0.0000, 0.0000, 0.0000, -0.0265, 0.0212, -0.0968, -0.0302, -0.0041, -0.0008, 347, 0, 0.0000, 0.0000, 0.0000, 0.0000
2.7010, 0.0000, 0.0000, 0.0000, 0.0000, 0.0000, 0.0000, -0.0266, 0.0212, -0.0968, -0.0303, -0.0040, -0.0008, 348, 0, 0.0000, 0.0000, 0.0000, 0.0000
2.7210, 0.0000, 0.0000, 0.0000, 0.0000, 0.0000, 0.0000, -0.0265, 0.0212, -0.0968, -0.0302, -0.0040, -0.0008, 349, 0, 0.0000, 0.0000, 0.0000, 0.0000
2.7400, 0.0000, 0.0000, 0.0000, 0.0000, 0.0000, 0.0000, -0.0265, 0.0212, -0.0968, -0.0302, -0.0040, -0.0008, 350, 0, 0.0000, 0.0000, 0.0000, 0.0000
2.7610, 0.0000, 0.0000, 0.0000, 0.0000, 0.0000, 0.0000, -0.0266, 0.0212, -0.0968, -0.0302, -0.0040, -0.0008, 351, 0, 0.0000, 0.0000, 0.0000, 0.0000
2.7810, 0.0000, 0.0000, 0.0000, 0.0000, 0.0000, 0.0000, -0.0265, 0.0212, -0.0968, -0.0302, -0.0041, -0.0008, 352, 0, 0.0000, 0.0000, 0.0000, 0.0000
2.8010, 0.0000, 0.0000, 0.0000, 0.0000, 0.0000, 0.0000, -0.0266, 0.0212, -0.0967, -0.0302, -0.0040, -0.0009, 353, 0, 0.0000, 0.0000, 0.0000, 0.0000
2.8210, 0.0000, 0.0000, 0.0000, 0.0000, 0.0000, 0.0000, -0.0265, 0.0212, -0.0968, -0.0302, -0.0040, -0.0009, 354, 0, 0.0000, 0.0000, 0.0000, 0.0000
2.8400, 0.0000, 0.0000, 0.0000, 0.0000, 0.0000, 0.0000, -0.0265, 0.0212, -0.0967, -0.0302, -0.0042, -0.0011, 355, 0, 0.0000, 0.0000, 0.0000, 0.0000
2.8610, 0.0000, 0.0000, 0.0000, 0.0000, 0.0000, 0.0000, -0.0265, 0.0212, -0.0968, -0.0302, -0.0040, -0.0009, 356, 0, 0.0000, 0.0000, 0.0000, 0.0000
2.8810, 0.0000, 0.0000, 0.0000, 0.0000, 0.0000, 0.0000, -0.0265, 0.0212, -0.0968, -0.0301, -0.0041, -0.0009, 357, 0, 0.0000, 0.0000, 0.0000, 0.0000
2.9010, 0.0000, 0.0000, 0.0000, 0.0000, 0.0000, 0.0000, -0.0265, 0.0212, -0.0967, -0.0302, -0.0040, -0.0009, 358, 0, 0.0000, 0.0000, 0.0000, 0.0000
2.9210, 0.0000, 0.0000, 0.0000, 0.0000, 0.0000, 0.0000, -0.0265, 0.0212, -0.0968, -0.0302, -0.0042, -0.0009, 359, 0, 0.0000, 0.0000, 0.0000, 0.0000
2.9410, 0.0000, 0.0000, 0.0000, 0.0000, 0.0000, 0.0000, -0.0265, 0.0212, -0.0967, -0.0301, -0.0041, -0.0008, 360, 0, 0.0000, 0.0000, 0.0000, 0.0000
2.9610, 0.0000, 0.0000, 0.0000, 0.0000, 0.0000, 0.0000, -0.0265, 0.0213, -0.0968, -0.0302, -0.0042, -0.0010, 361, 0, 0.0000, 0.0000, 0.0000, 0.0000
2.9810, 0.0000, 0.0000, 0.0000, 0.0000, 0.0000, 0.0000, -0.0265, 0.0212, -0.0967, -0.0302, -0.0041, -0.0010, 362, 0, 0.0000, 0.0000, 0.0000, 0.0000
3.0010, 0.0000, 0.0000, 0.0000, 0.0000, 0.0000, 0.0000, -0.0265, 0.0212, -0.0968, -0.0302, -0.0041, -0.0009, 363, 0, 0.0000, 0.0000, 0.0000, 0.0000
3.0210, 0.0000, 0.0000, 0.0000, 0.0000, 0.0000, 0.0000, -0.0265, 0.0212, -0.0968, -0.0302, -0.0040, -0.0008, 364, 0, 0.0000, 0.0000, 0.0000, 0.0000
3.0400, 0.0000, 0.0000, 0.0000, 0.0000, 0.0000, 0.0000, -0.0265, 0.0212, -0.0967, -0.0302, -0.0041, -0.0009, 365, 0, 0.0000, 0.0000, 0.0000, 0.0000
3.0610, 0.0000, 0.0000, 0.0000, 0.0000, 0.0000, 0.0000, -0.0265, 0.0212, -0.0968, -0.0302, -0.0041, -0.0008, 366, 0, 0.0000, 0.0000, 0.0000, 0.0000
3.0810, 0.0000, 0.0000, 0.0000, 0.0000, 0.0000, 0.0000, -0.0265, 0.0212, -0.0968, -0.0301, -0.0039, -0.0008, 367, 0, 0.0000, 0.0000, 0.0000, 0.0000
3.1010, 0.0000, 0.0000, 0.0000, 0.0000, 0.0000, 0.0000, -0.0265, 0.0212, -0.0968, -0.0302, -0.0041, -0.0007, 368, 0, 0.0000, 0.0000, 0.0000, 0.0000
3.1210, 0.0000, 0.0000, 0.0000, 0.0000, 0.0000, 0.0000, -0.0265, 0.0212, -0.0968, -0.0302, -0.0040, -0.0007, 369, 0, 0.0000, 0.0000, 0.0000, 0.0000
3.1400, 0.0000, 0.0000, 0.0000, 0.0000, 0.0000, 0.0000, -0.0265, 0.0212, -0.0967, -0.0302, -0.0040, -0.0008, 370, 0, 0.0000, 0.0000, 0.0000, 0.0000
3.1610, 0.0000, 0.0000, 0.0000, 0.0000, 0.0000, 0.0000, -0.0265, 0.0212, -0.0968, -0.0301, -0.0041, -0.0008, 371, 0, 0.0000, 0.0000, 0.0000, 0.0000
3.1810, 0.0000, 0.0000, 0.0000, 0.0000, 0.0000, 0.0000, -0.0266, 0.0212, -0.0967, -0.0302, -0.0040, -0.0008, 372, 0, 0.0000, 0.0000, 0.0000, 0.0000
3.2010, 0.0000, 0.0000, 0.0000, 0.0000, 0.0000, 0.0000, -0.0265, 0.0212, -0.0968, -0.0302, -0.0042, -0.0008, 373, 0, 0.0000, 0.0000, 0.0000, 0.0000
3.2210, 0.0000, 0.0000, 0.0000, 0.0000, 0.0000, 0.0000, -0.0265, 0.0212, -0.0968, -0.0301, -0.0040, -0.0008, 374, 0, 0.0000, 0.0000, 0.0000, 0.0000
3.2400, 0.0000, 0.0000, 0.0000, 0.0000, 0.0000, 0.0000, -0.0265, 0.0212, -0.0968, -0.0302, -0.0041, -0.0009, 375, 0, 0.0000, 0.0000, 0.0000, 0.0000
3.2610, 0.0000, 0.0000, 0.0000, 0.0000, 0.0000, 0.0000, -0.0265, 0.0212, -0.0968, -0.0302, -0.0042, -0.0008, 376, 0, 0.0000, 0.0000, 0.0000, 0.0000
3.2810, 0.0000, 0.0000, 0.0000, 0.0000, 0.0000, 0.0000, -0.0266, 0.0212, -0.0967, -0.0302, -0.0040, -0.0009, 377, 0, 0.0000, 0.0000, 0.0000, 0.0000
3.3010, 0.0000, 0.0000, 0.0000, 0.0000, 0.0000, 0.0000, -0.0264, 0.0211, -0.0968, -0.0300, -0.0040, -0.0005, 378, 0, 0.0000, 0.0000, 0.0000, 0.0000
3.3210, 0.0000, 0.0000, 0.0000, 0.0000, 0.0000, 0.0000, -0.0265, 0.0212, -0.0967, -0.0302, -0.0040, -0.0008, 379, 0, 0.0000, 0.0000, 0.0000, 0.0000
3.3400, 0.0000, 0.0000, 0.0000, 0.0000, 0.0000, 0.0000, -0.0264, 0.0211, -0.0968, -0.0300, -0.0039, -0.0004, 380, 0, 0.0000, 0.0000, 0.0000, 0.0000
3.3610, 0.0000, 0.0000, 0.0000, 0.0000, 0.0000, 0.0000, -0.0264, 0.0212, -0.0968, -0.0300, -0.0040, -0.0006, 381, 0, 0.0000, 0.0000, 0.0000, 0.0000
3.3810, 0.0000, 0.0000, 0.0000, 0.0000, 0.0000, 0.0000, -0.0265, 0.0212, -0.0968, -0.0302, -0.0039, -0.0009, 382, 0, 0.0000, 0.0000, 0.0000, 0.0000
3.4010, 0.0000, 0.0000, 0.0000, 0.0000, 0.0000, 0.0000, -0.0264, 0.0211, -0.0968, -0.0300, -0.0040, -0.0004, 383, 0, 0.0000, 0.0000, 0.0000, 0.0000
3.4210, 0.0000, 0.0000, 0.0000, 0.0000, 0.0000, 0.0000, -0.0265, 0.0212, -0.0968, -0.0300, -0.0038, -0.0005, 384, 0, 0.0000, 0.0000, 0.0000, 0.0000
3.4400, 0.0000, 0.0000, 0.0000, 0.0000, 0.0000, 0.0000, -0.0265, 0.0211, -0.0969, -0.0300, -0.0040, -0.0005, 385, 0, 0.0000, 0.0000, 0.0000, 0.0000
3.4610, 0.0000, 0.0000, 0.0000, 0.0000, 0.0000, 0.0000, -0.0264, 0.0212, -0.0968, -0.0299, -0.0038, -0.0003, 386, 0, 0.0000, 0.0000, 0.0000, 0.0000
3.4810, 0.0000, 0.0000, 0.0000, 0.0000, 0.0000, 0.0000, -0.0265, 0.0212, -0.0968, -0.0301, -0.0041, -0.0007, 387, 0, 0.0000, 0.0000, 0.0000, 0.0000
3.5010, 0.0000, 0.0000, 0.0000, 0.0000, 0.0000, 0.0000, -0.0264, 0.0212, -0.0968, -0.0300, -0.0040, -0.0005, 388, 0, 0.0000, 0.0000, 0.0000, 0.0000
3.5210, 0.0000, 0.0000, 0.0000, 0.0000, 0.0000, 0.0000, -0.0265, 0.0212, -0.0967, -0.0300, -0.0041, -0.0007, 389, 0, 0.0000, 0.0000, 0.0000, 0.0000
3.5400, 0.0000, 0.0000, 0.0000, 0.0000, 0.0000, 0.0000, -0.0264, 0.0212, -0.0968, -0.0301, -0.0039, -0.0006, 390, 0, 0.0000, 0.0000, 0.0000, 0.0000
3.5610, 0.0000, 0.0000, 0.0000, 0.0000, 0.0000, 0.0000, -0.0265, 0.0212, -0.0968, -0.0300, -0.0041, -0.0007, 391, 0, 0.0000, 0.0000, 0.0000, 0.0000
3.5810, 0.0000, 0.0000, 0.0000, 0.0000, 0.0000, 0.0000, -0.0265, 0.0212, -0.0968, -0.0302, -0.0041, -0.0006, 392, 0, 0.0000, 0.0000, 0.0000, 0.0000
3.6010, 0.0000, 0.0000, 0.0000, 0.0000, 0.0000, 0.0000, -0.0265, 0.0211, -0.0968, -0.0299, -0.0040, -0.0005, 393, 0, 0.0000, 0.0000, 0.0000, 0.0000
3.6210, 0.0000, 0.0000, 0.0000, 0.0000, 0.0000, 0.0000, -0.0265, 0.0212, -0.0968, -0.0300, -0.0039, -0.0006, 394, 0, 0.0000, 0.0000, 0.0000, 0.0000
3.6400, 0.0000, 0.0000, 0.0000, 0.0000, 0.0000, 0.0000, -0.0265, 0.0212, -0.0969, -0.0300, -0.0040, -0.0005, 395, 0, 0.0000, 0.0000, 0.0000, 0.0000
3.6610, 0.0000, 0.0000, 0.0000, 0.0000, 0.0000, 0.0000, -0.0265, 0.0212, -0.0967, -0.0301, -0.0041, -0.0005, 396, 0, 0.0000, 0.0000, 0.0000, 0.0000
3.6810, 0.0000, 0.0000, 0.0000, 0.0000, 0.0000, 0.0000, -0.0264, 0.0212, -0.0969, -0.0301, -0.0040, -0.0006, 397, 0, 0.0000, 0.0000, 0.0000, 0.0000
3.7010, 0.0000, 0.0000, 0.0000, 0.0000, 0.0000, 0.0000, -0.0265, 0.0212, -0.0968, -0.0300, -0.0039, -0.0005, 398, 0, 0.0000, 0.0000, 0.0000, 0.0000
3.7210, 0.0000, 0.0000, 0.0000, 0.0000, 0.0000, 0.0000, -0.0265, 0.0212, -0.0968, -0.0301, -0.0040, -0.0006, 399, 0, 0.0000, 0.0000, 0.0000, 0.0000
3.7400, 0.0000, 0.0000, 0.0000, 0.0000, 0.0000, 0.0000, -0.0265, 0.0212, -0.0968, -0.0301, -0.0040, -0.0006, 400, 0, 0.0000, 0.0000, 0.0000, 0.0000
3.7610, 0.0000, 0.0000, 0.0000, 0.0000, 0.0000, 0.0000, -0.0265, 0.0212, -0.0968, -0.0300, -0.0039, -0.0006, 401, 0, 0.0000, 0.0000, 0.0000, 0.0000
3.7810, 0.0000, 0.0000, 0.0000, 0.0000, 0.0000, 0.0000, -0.0264, 0.0212, -0.0968, -0.0302, -0.0039, -0.0007, 402, 0, 0.0000, 0.0000, 0.0000, 0.0000
3.8010, 0.0000, 0.0000, 0.0000, 0.0000, 0.0000, 0.0000, -0.0266, 0.0212, -0.0968, -0.0301, -0.0040, -0.0006, 403, 0, 0.0000, 0.0000, 0.0000, 0.0000
3.8210, 0.0000, 0.0000, 0.0000, 0.0000, 0.0000, 0.0000, -0.0265, 0.0212, -0.0968, -0.0301, -0.0040, -0.0007, 404, 0, 0.0000, 0.0000, 0.0000, 0.0000
3.8400, 0.0000, 0.0000, 0.0000, 0.0000, 0.0000, 0.0000, -0.0265, 0.0212, -0.0968, -0.0300, -0.0039, -0.0006, 405, 0, 0.0000, 0.0000, 0.0000, 0.0000
3.8610, 0.0000, 0.0000, 0.0000, 0.0000, 0.0000, 0.0000, -0.0265, 0.0212, -0.0968, -0.0301, -0.0039, -0.0007, 406, 0, 0.0000, 0.0000, 0.0000, 0.0000
3.8810, 0.0000, 0.0000, 0.0000, 0.0000, 0.0000, 0.0000, -0.0264, 0.0212, -0.0968, -0.0301, -0.0041, -0.0006, 407, 0, 0.0000, 0.0000, 0.0000, 0.0000
3.9010, 0.0000, 0.0000, 0.0000, 0.0000, 0.0000, 0.0000, -0.0265, 0.0212, -0.0967, -0.0300, -0.0039, -0.0006, 408, 0, 0.0000, 0.0000, 0.0000, 0.0000
3.9210, 0.0000, 0.0000, 0.0000, 0.0000, 0.0000, 0.0000, -0.0264, 0.0212, -0.0969, -0.0300, -0.0040, -0.0004, 409, 0, 0.0000, 0.0000, 0.0000, 0.0000
3.9400, 0.0000, 0.0000, 0.0000, 0.0000, 0.0000, 0.0000, -0.0265, 0.0211, -0.0967, -0.0301, -0.0041, -0.0007, 410, 0, 0.0000, 0.0000, 0.0000, 0.0000
3.9610, 0.0000, 0.0000, 0.0000, 0.0000, 0.0000, 0.0000, -0.0265, 0.0212, -0.0968, -0.0301, -0.0040, -0.0006, 411, 0, 0.0000, 0.0000, 0.0000, 0.0000
3.9810, 0.0000, 0.0000, 0.0000, 0.0000, 0.0000, 0.0000, -0.0264, 0.0212, -0.0968, -0.0299, -0.0039, -0.0003, 412, 0, 0.0000, 0.0000, 0.0000, 0.0000
4.0010, 0.0000, 0.0000, 0.0000, 0.0000, 0.0000, 0.0000, -0.0265, 0.0212, -0.0968, -0.0300, -0.0041, -0.0007, 413, 0, 0.0000, 0.0000, 0.0000, 0.0000
4.0210, 0.0000, 0.0000, 0.0000, 0.0000, 0.0000, 0.0000, -0.0264, 0.0212, -0.0968, -0.0302, -0.0039, -0.0005, 414, 0, 0.0000, 0.0000, 0.0000, 0.0000
4.0400, 0.0000, 0.0000, 0.0000, 0.0000, 0.0000, 0.0000, -0.0265, 0.0212, -0.0967, -0.0301, -0.0041, -0.0006, 415, 0, 0.0000, 0.0000, 0.0000, 0.0000
4.0610, 0.0000, 0.0000, 0.0000, 0.0000, 0.0000, 0.0000, -0.0265, 0.0212, -0.0968, -0.0302, -0.0040, -0.0005, 416, 0, 0.0000, 0.0000, 0.0000, 0.0000
4.0810, 0.0000, 0.0000, 0.0000, 0.0000, 0.0000, 0.0000, -0.0264, 0.0211, -0.0968, -0.0300, -0.0040, -0.0008, 417, 0, 0.0000, 0.0000, 0.0000, 0.0000
4.1010, 0.0000, 0.0000, 0.0000, 0.0000, 0.0000, 0.0000, -0.0265, 0.0212, -0.0968, -0.0301, -0.0040, -0.0005, 418, 0, 0.0000, 0.0000, 0.0000, 0.0000
4.1210, 0.0000, 0.0000, 0.0000, 0.0000, 0.0000, 0.0000, -0.0264, 0.0211, -0.0969, -0.0301, -0.0039, -0.0005, 419, 0, 0.0000, 0.0000, 0.0000, 0.0000
4.1400, 0.0000, 0.0000, 0.0000, 0.0000, 0.0000, 0.0000, -0.0265, 0.0212, -0.0967, -0.0301, -0.0040, -0.0005, 420, 0, 0.0000, 0.0000, 0.0000, 0.0000
4.1610, 0.0000, 0.0000, 0.0000, 0.0000, 0.0000, 0.0000, -0.0264, 0.0212, -0.0969, -0.0301, -0.0040, -0.0004, 421, 0, 0.0000, 0.0000, 0.0000, 0.0000
4.1810, 0.0000, 0.0000, 0.0000, 0.0000, 0.0000, 0.0000, -0.0265, 0.0211, -0.0968, -0.0301, -0.0039, -0.0006, 422, 0, 0.0000, 0.0000, 0.0000, 0.0000
4.2010, 0.0000, 0.0000, 0.0000, 0.0000, 0.0000, 0.0000, -0.0264, 0.0212, -0.0968, -0.0300, -0.0039, -0.0005, 423, 0, 0.0000, 0.0000, 0.0000, 0.0000
4.2210, 0.0000, 0.0000, 0.0000, 0.0000, 0.0000, 0.0000, -0.0265, 0.0211, -0.0968, -0.0302, -0.0039, -0.0007, 424, 0, 0.0000, 0.0000, 0.0000, 0.0000
4.2400, 0.0000, 0.0000, 0.0000, 0.0000, 0.0000, 0.0000, -0.0265, 0.0211, -0.0968, -0.0300, -0.0040, -0.0003, 425, 0, 0.0000, 0.0000, 0.0000, 0.0000
4.2610, 0.0000, 0.0000, 0.0000, 0.0000, 0.0000, 0.0000, -0.0265, 0.0212, -0.0969, -0.0302, -0.0040, -0.0006, 426, 0, 0.0000, 0.0000, 0.0000, 0.0000
4.2810, 0.0000, 0.0000, 0.0000, 0.0000, 0.0000, 0.0000, -0.0265, 0.0211, -0.0968, -0.0301, -0.0039, -0.0005, 427, 0, 0.0000, 0.0000, 0.0000, 0.0000
4.3010, 0.0000, 0.0000, 0.0000, 0.0000, 0.0000, 0.0000, -0.0265, 0.0212, -0.0968, -0.0303, -0.0040, -0.0007, 428, 0, 0.0000, 0.0000, 0.0000, 0.0000
4.3210, 0.0000, 0.0000, 0.0000, 0.0000, 0.0000, 0.0000, -0.0265, 0.0212, -0.0968, -0.0302, -0.0040, -0.0008, 429, 0, 0.0000, 0.0000, 0.0000, 0.0000
4.3400, 0.0000, 0.0000, 0.0000, 0.0000, 0.0000, 0.0000, -0.0265, 0.0212, -0.0968, -0.0302, -0.0040, -0.0007, 430, 0, 0.0000, 0.0000, 0.0000, 0.0000
4.3610, 0.0000, 0.0000, 0.0000, 0.0000, 0.0000, 0.0000, -0.0265, 0.0212, -0.0968, -0.0303, -0.0040, -0.0007, 431, 0, 0.0000, 0.0000, 0.0000, 0.0000
4.3810, 0.0000, 0.0000, 0.0000, 0.0000, 0.0000, 0.0000, -0.0265, 0.0212, -0.0967, -0.0302, -0.0040, -0.0008, 432, 0, 0.0000, 0.0000, 0.0000, 0.0000
4.4010, 0.0000, 0.0000, 0.0000, 0.0000, 0.0000, 0.0000, -0.0265, 0.0212, -0.0968, -0.0303, -0.0041, -0.0007, 433, 0, 0.0000, 0.0000, 0.0000, 0.0000
4.4210, 0.0000, 0.0000, 0.0000, 0.0000, 0.0000, 0.0000, -0.0265, 0.0212, -0.0968, -0.0303, -0.0039, -0.0009, 434, 0, 0.0000, 0.0000, 0.0000, 0.0000
4.4410, 0.0000, 0.0000, 0.0000, 0.0000, 0.0000, 0.0000, -0.0265, 0.0212, -0.0968, -0.0303, -0.0040, -0.0006, 435, 0, 0.0000, 0.0000, 0.0000, 0.0000
4.4610, 0.0000, 0.0000, 0.0000, 0.0000, 0.0000, 0.0000, -0.0265, 0.0212, -0.0968, -0.0303, -0.0040, -0.0007, 436, 0, 0.0000, 0.0000, 0.0000, 0.0000
4.4810, 0.0000, 0.0000, 0.0000, 0.0000, 0.0000, 0.0000, -0.0265, 0.0212, -0.0968, -0.0301, -0.0041, -0.0007, 437, 0, 0.0000, 0.0000, 0.0000, 0.0000
4.5000, 0.0000, 0.0000, 0.0000, 0.0000, 0.0000, 0.0000, -0.0265, 0.0212, -0.0968, -0.0302, -0.0041, -0.0005, 438, 0, 0.0000, 0.0000, 0.0000, 0.0000
4.5210, 0.0000, 0.0000, 0.0000, 0.0000, 0.0000, 0.0000, -0.0266, 0.0212, -0.0967, -0.0301, -0.0040, -0.0007, 439, 0, 0.0000, 0.0000, 0.0000, 0.0000
4.5400, 0.0000, 0.0000, 0.0000, 0.0000, 0.0000, 0.0000, -0.0265, 0.0212, -0.0969, -0.0302, -0.0041, -0.0005, 440, 0, 0.0000, 0.0000, 0.0000, 0.0000
4.5610, 0.0000, 0.0000, 0.0000, 0.0000, 0.0000, 0.0000, -0.0265, 0.0212, -0.0968, -0.0301, -0.0041, -0.0006, 441, 0, 0.0000, 0.0000, 0.0000, 0.0000
4.5810, 0.0000, 0.0000, 0.0000, 0.0000, 0.0000, 0.0000, -0.0265, 0.0212, -0.0968, -0.0301, -0.0040, -0.0006, 442, 0, 0.0000, 0.0000, 0.0000, 0.0000
4.6010, 0.0000, 0.0000, 0.0000, 0.0000, 0.0000, 0.0000, -0.0265, 0.0212, -0.0968, -0.0302, -0.0040, -0.0007, 443, 0, 0.0000, 0.0000, 0.0000, 0.0000
4.6210, 0.0000, 0.0000, 0.0000, 0.0000, 0.0000, 0.0000, -0.0265, 0.0212, -0.0968, -0.0301, -0.0039, -0.0005, 444, 0, 0.0000, 0.0000, 0.0000, 0.0000
4.6410, 0.0000, 0.0000, 0.0000, 0.0000, 0.0000, 0.0000, -0.0264, 0.0212, -0.0969, -0.0299, -0.0041, -0.0006, 445, 0, 0.0000, 0.0000, 0.0000, 0.0000
4.6610, 0.0000, 0.0000, 0.0000, 0.0000, 0.0000, 0.0000, -0.0264, 0.0212, -0.0968, -0.0300, -0.0040, -0.0005, 446, 0, 0.0000, 0.0000, 0.0000, 0.0000
4.6810, 0.0000, 0.0000, 0.0000, 0.0000, 0.0000, 0.0000, -0.0264, 0.0211, -0.0968, -0.0300, -0.0041, -0.0006, 447, 0, 0.0000, 0.0000, 0.0000, 0.0000
4.7010, 0.0000, 0.0000, 0.0000, 0.0000, 0.0000, 0.0000, -0.0264, 0.0212, -0.0968, -0.0300, -0.0040, -0.0006, 448, 0, 0.0000, 0.0000, 0.0000, 0.0000
4.7210, 0.0000, 0.0000, 0.0000, 0.0000, 0.0000, 0.0000, -0.0265, 0.0212, -0.0968, -0.0299, -0.0041, -0.0006, 449, 0, 0.0000, 0.0000, 0.0000, 0.0000
4.7400, 0.0000, 0.0000, 0.0000, 0.0000, 0.0000, 0.0000, -0.0264, 0.0211, -0.0969, -0.0300, -0.0040, -0.0006, 450, 0, 0.0000, 0.0000, 0.0000, 0.0000
4.7610, 0.0000, 0.0000, 0.0000, 0.0000, 0.0000, 0.0000, -0.0265, 0.0212, -0.0967, -0.0300, -0.0041, -0.0006, 451, 0, 0.0000, 0.0000, 0.0000, 0.0000
4.7810, 0.0000, 0.0000, 0.0000, 0.0000, 0.0000, 0.0000, -0.0264, 0.0212, -0.0969, -0.0297, -0.0041, -0.0005, 452, 0, 0.0000, 0.0000, 0.0000, 0.0000
4.8010, 0.0000, 0.0000, 0.0000, 0.0000, 0.0000, 0.0000, -0.0264, 0.0212, -0.0968, -0.0300, -0.0040, -0.0006, 453, 0, 0.0000, 0.0000, 0.0000, 0.0000
4.8210, 0.0000, 0.0000, 0.0000, 0.0000, 0.0000, 0.0000, -0.0264, 0.0212, -0.0969, -0.0301, -0.0041, -0.0006, 454, 0, 0.0000, 0.0000, 0.0000, 0.0000
4.8400, 0.0000, 0.0000, 0.0000, 0.0000, 0.0000, 0.0000, -0.0265, 0.0212, -0.0969, -0.0300, -0.0042, -0.0007, 455, 0, 0.0000, 0.0000, 0.0000, 0.0000
4.8710, 0.0000, 0.0000, 0.0000, 0.0000, 0.0000, 0.0000, -0.0265, 0.0212, -0.0968, -0.0299, -0.0042, -0.0006, 456, 0, 0.0000, 0.0000, 0.0000, 0.0000
4.8900, 0.0000, 0.0000, 0.0000, 0.0000, 0.0000, 0.0000, -0.0265, 0.0212, -0.0969, -0.0300, -0.0044, -0.0007, 457, 0, 0.0000, 0.0000, 0.0000, 0.0000
4.9010, 0.0000, 0.0000, 0.0000, 0.0000, 0.0000, 0.0000, -0.0265, 0.0212, -0.0969, -0.0299, -0.0041, -0.0007, 458, 0, 0.0000, 0.0000, 0.0000, 0.0000
4.9210, 0.0000, 0.0000, 0.0000, 0.0000, 0.0000, 0.0000, -0.0265, 0.0212, -0.0968, -0.0299, -0.0043, -0.0006, 459, 0, 0.0000, 0.0000, 0.0000, 0.0000
4.9400, 0.0000, 0.0000, 0.0000, 0.0000, 0.0000, 0.0000, -0.0265, 0.0212, -0.0969, -0.0299, -0.0043, -0.0007, 460, 0, 0.0000, 0.0000, 0.0000, 0.0000
4.9610, 0.0000, 0.0000, 0.0000, 0.0000, 0.0000, 0.0000, -0.0265, 0.0213, -0.0968, -0.0300, -0.0043, -0.0007, 461, 0, 0.0000, 0.0000, 0.0000, 0.0000
4.9810, 0.0000, 0.0000, 0.0000, 0.0000, 0.0000, 0.0000, -0.0265, 0.0212, -0.0969, -0.0300, -0.0041, -0.0005, 462, 0, 0.0000, 0.0000, 0.0000, 0.0000
5.0010, 0.0000, 0.0000, 0.0000, 0.0000, 0.0000, 0.0000, -0.0266, 0.0212, -0.0969, -0.0300, -0.0042, -0.0008, 463, 0, 0.0000, 0.0000, 0.0000, 0.0000
5.0210, 0.0000, 0.0000, 0.0000, 0.0000, 0.0000, 0.0000, -0.0264, 0.0212, -0.0969, -0.0297, -0.0042, -0.0005, 464, 0, 0.0000, 0.0000, -0.0003, 0.0000
5.0400, 0.0000, 0.0000, 0.0000, 0.0000, 0.0000, 0.0000, -0.0265, 0.0213, -0.0968, -0.0299, -0.0041, -0.0008, 465, 0, 0.0000, 0.0000, -0.0070, 0.0000
5.0610, 0.0000, 0.0000, 0.0000, 0.0000, 0.0000, 0.0000, -0.0265, 0.0213, -0.0969, -0.0299, -0.0041, -0.0006, 466, 0, 0.0000, 0.0000, -0.0133, 0.0000
5.0810, 0.0000, 0.0000, 0.0000, 0.0000, 0.0000, 0.0000, -0.0265, 0.0212, -0.0969, -0.0300, -0.0041, -0.0007, 467, 0, 0.0000, 0.0000, -0.0203, 0.0000
5.1010, 0.0000, 0.0000, 0.0000, 0.0000, 0.0000, 0.0000, -0.0265, 0.0212, -0.0968, -0.0300, -0.0040, -0.0006, 468, 0, 0.0000, 0.0000, -0.0270, 0.0000
5.1210, 0.0000, 0.0000, 0.0000, 0.0000, 0.0000, 0.0000, -0.0265, 0.0212, -0.0969, -0.0299, -0.0042, -0.0006, 469, 0, 0.0000, 0.0000, -0.0337, 0.0000
5.1400, 0.0000, 0.0000, 0.0000, 0.0000, 0.0000, 0.0000, -0.0265, 0.0212, -0.0968, -0.0299, -0.0040, -0.0006, 470, 0, 0.0000, 0.0000, -0.0403, 0.0000
5.1610, 0.0000, 0.0000, 0.0000, 0.0000, 0.0000, 0.0000, -0.0264, 0.0213, -0.0969, -0.0299, -0.0042, -0.0005, 471, 0, 0.0000, 0.0000, -0.0467, 0.0000
5.1810, 0.0000, 0.0000, 0.0000, 0.0000, 0.0000, 0.0000, -0.0265, 0.0213, -0.0968, -0.0299, -0.0040, -0.0006, 472, 0, 0.0000, 0.0000, -0.0537, 0.0000
5.2010, 0.0000, 0.0000, 0.0000, 0.0000, 0.0000, 0.0000, -0.0265, 0.0212, -0.0969, -0.0299, -0.0039, -0.0008, 473, 0, 0.0000, 0.0000, -0.0603, 0.0000
5.2210, 0.0000, 0.0000, 0.0000, 0.0000, 0.0000, 0.0000, -0.0264, 0.0212, -0.0969, -0.0299, -0.0041, -0.0005, 474, 0, 0.0000, 0.0000, -0.0670, 0.0000
5.2400, 0.0000, 0.0000, 0.0000, 0.0000, 0.0000, 0.0000, -0.0265, 0.0213, -0.0968, -0.0300, -0.0040, -0.0007, 475, 0, 0.0000, 0.0000, -0.0737, 0.0000
5.2610, 0.0000, 0.0000, 0.0000, 0.0000, 0.0000, 0.0000, -0.0264, 0.0213, -0.0969, -0.0298, -0.0041, -0.0005, 476, 0, 0.0000, 0.0000, -0.0800, 0.0000
5.2810, 0.0000, 0.0000, 0.0000, 0.0000, 0.0000, 0.0000, -0.0265, 0.0213, -0.0968, -0.0300, -0.0041, -0.0008, 477, 0, 0.0000, 0.0000, -0.0870, 0.0000
5.3010, 0.0000, 0.0000, 0.0000, 0.0000, 0.0000, 0.0000, -0.0265, 0.0213, -0.0969, -0.0300, -0.0040, -0.0006, 478, 0, 0.0000, 0.0000, -0.0937, 0.0000
5.3210, 0.0000, 0.0000, 0.0000, 0.0000, 0.0000, 0.0000, -0.0264, 0.0213, -0.0969, -0.0297, -0.0041, -0.0006, 479, 0, 0.0000, 0.0000, -0.1003, 0.0000
5.3400, 0.0000, 0.0000, 0.0000, 0.0000, 0.0000, 0.0000, -0.0265, 0.0213, -0.0968, -0.0299, -0.0039, -0.0006, 480, 0, 0.0000, 0.0000, -0.1070, 0.0000
5.3610, 0.0000, 0.0000, 0.0000, 0.0000, 0.0000, 0.0000, -0.0265, 0.0212, -0.0969, -0.0299, -0.0040, -0.0006, 481, 0, 0.0000, 0.0000, -0.1133, 0.0000
5.3810, 0.0000, 0.0000, 0.0000, 0.0000, 0.0000, 0.0000, -0.0265, 0.0212, -0.0968, -0.0299, -0.0041, -0.0006, 482, 0, 0.0000, 0.0000, -0.1203, 0.0000
5.4010, 0.0000, 0.0000, 0.0000, 0.0000, 0.0000, 0.0000, -0.0265, 0.0213, -0.0969, -0.0300, -0.0040, -0.0008, 483, 0, 0.0000, 0.0000, -0.1270, 0.0000
5.4210, 0.0000, 0.0000, 0.0000, 0.0000, 0.0000, 0.0000, -0.0265, 0.0212, -0.0969, -0.0299, -0.0041, -0.0006, 484, 0, 0.0000, 0.0000, -0.1337, 0.0000
5.4400, 0.0000, 0.0000, 0.0000, 0.0000, 0.0000, 0.0000, -0.0265, 0.0213, -0.0968, -0.0300, -0.0041, -0.0007, 485, 0, 0.0000, 0.0000, -0.1403, 0.0000
5.4610, 0.0000, 0.0000, 0.0000, 0.0000, 0.0000, 0.0000, -0.0265, 0.0212, -0.0969, -0.0299, -0.0041, -0.0006, 486, 0, 0.0000, 0.0000, -0.1467, 0.0000
5.4810, 0.0000, 0.0000, 0.0000, 0.0000, 0.0000, 0.0000, -0.0265, 0.0212, -0.0968, -0.0299, -0.0041, -0.0007, 487, 0, 0.0000, 0.0000, -0.1537, 0.0000
5.5010, 0.0000, 0.0000, 0.0000, 0.0000, 0.0000, 0.0000, -0.0264, 0.0212, -0.0969, -0.0298, -0.0041, -0.0005, 488, 0, 0.0000, 0.0000, -0.1603, 0.0000
5.5210, 0.0000, 0.0000, 0.0000, 0.0000, 0.0000, 0.0000, -0.0265, 0.0212, -0.0968, -0.0299, -0.0040, -0.0007, 489, 0, 0.0000, 0.0000, -0.1670, 0.0000
5.5400, 0.0000, 0.0000, 0.0000, 0.0000, 0.0000, 0.0000, -0.0265, 0.0213, -0.0969, -0.0299, -0.0041, -0.0006, 490, 0, 0.0000, 0.0000, -0.1737, 0.0000
5.5610, 0.0000, 0.0000, 0.0000, 0.0000, 0.0000, 0.0000, -0.0265, 0.0212, -0.0969, -0.0299, -0.0039, -0.0006, 491, 0, 0.0000, 0.0000, -0.1800, 0.0000
5.5810, 0.0000, 0.0000, 0.0000, 0.0000, 0.0000, 0.0000, -0.0265, 0.0212, -0.0968, -0.0299, -0.0040, -0.0006, 492, 0, 0.0000, 0.0000, -0.1870, 0.0000
5.6010, 0.0000, 0.0000, 0.0000, 0.0000, 0.0000, 0.0000, -0.0265, 0.0212, -0.0969, -0.0300, -0.0040, -0.0007, 493, 0, 0.0000, 0.0000, -0.1937, 0.0000
5.6200, 0.0000, 0.0000, 0.0000, 0.0000, 0.0000, 0.0000, -0.0265, 0.0213, -0.0968, -0.0300, -0.0039, -0.0006, 494, 0, 0.0000, 0.0000, -0.2003, 0.0000
5.6410, 0.0000, 0.0000, 0.0000, 0.0000, 0.0000, 0.0000, -0.0264, 0.0212, -0.0968, -0.0301, -0.0041, -0.0006, 495, 0, 0.0000, 0.0000, -0.2067, 0.0000
5.6610, 0.0000, 0.0000, 0.0000, 0.0000, 0.0000, 0.0000, -0.0266, 0.0212, -0.0969, -0.0300, -0.0040, -0.0006, 496, 0, 0.0000, 0.0000, -0.2137, 0.0000
5.6810, 0.0000, 0.0000, 0.0000, 0.0000, 0.0000, 0.0000, -0.0265, 0.0212, -0.0969, -0.0299, -0.0041, -0.0005, 497, 0, 0.0000, 0.0000, -0.2203, 0.0000
5.7010, 0.0000, 0.0000, 0.0000, 0.0000, 0.0000, 0.0000, -0.0265, 0.0212, -0.0969, -0.0300, -0.0042, -0.0006, 498, 0, 0.0000, 0.0000, -0.2270, 0.0000
5.7210, 0.0000, 0.0000, 0.0000, 0.0000, 0.0000, 0.0000, -0.0265, 0.0212, -0.0968, -0.0299, -0.0040, -0.0006, 499, 0, 0.0000, 0.0000, -0.2337, 0.0000
5.7410, 0.0000, 0.0000, 0.0000, 0.0000, 0.0000, 0.0000, -0.0265, 0.0212, -0.0969, -0.0300, -0.0042, -0.0006, 500, 0, 0.0000, 0.0000, -0.2403, 0.0000
5.7610, 0.0000, 0.0000, 0.0000, 0.0000, 0.0000, 0.0000, -0.0266, 0.0212, -0.0968, -0.0299, -0.0042, -0.0007, 501, 0, 0.0000, 0.0000, -0.2470, 0.0000
5.7810, 0.0000, 0.0000, 0.0000, 0.0000, 0.0000, 0.0000, -0.0265, 0.0212, -0.0969, -0.0301, -0.0041, -0.0006, 502, 0, 0.0000, 0.0000, -0.2537, 0.0000
5.8010, 0.0000, 0.0000, 0.0000, 0.0000, 0.0000, 0.0000, -0.0265, 0.0213, -0.0968, -0.0300, -0.0042, -0.0007, 503, 0, 0.0000, 0.0000, -0.2603, 0.0000
5.8210, 0.0000, 0.0000, 0.0000, 0.0000, 0.0000, 0.0000, -0.0266, 0.0213, -0.0969, -0.0300, -0.0042, -0.0006, 504, 0, 0.0000, 0.0000, -0.2670, 0.0000
5.8400, 0.0000, 0.0000, 0.0000, 0.0000, 0.0000, 0.0000, -0.0265, 0.0212, -0.0968, -0.0299, -0.0043, -0.0007, 505, 0, 0.0000, 0.0000, -0.2737, 0.0000
5.8610, 0.0000, 0.0000, 0.0000, 0.0000, 0.0000, 0.0000, -0.0266, 0.0212, -0.0968, -0.0300, -0.0042, -0.0006, 506, 0, 0.0000, 0.0000, -0.2800, 0.0000
5.8810, 0.0000, 0.0000, 0.0000, 0.0000, 0.0000, 0.0000, -0.0265, 0.0212, -0.0969, -0.0301, -0.0041, -0.0007, 507, 0, 0.0000, 0.0000, -0.2870, 0.0000
5.9000, 0.0000, 0.0000, 0.0000, 0.0000, 0.0000, 0.0000, -0.0265, 0.0212, -0.0968, -0.0300, -0.0042, -0.0006, 508, 0, 0.0000, 0.0000, -0.2937, 0.0000
5.9210, 0.0000, 0.0000, 0.0000, 0.0000, 0.0000, 0.0000, -0.0266, 0.0212, -0.0969, -0.0302, -0.0043, -0.0007, 509, 0, 0.0000, 0.0000, -0.3000, 0.0000
5.9400, 0.0000, 0.0000, 0.0000, 0.0000, 0.0000, 0.0000, -0.0265, 0.0212, -0.0969, -0.0302, -0.0042, -0.0007, 510, 0, 0.0000, 0.0000, -0.3070, 0.0000
5.9610, 0.0000, 0.0000, 0.0000, 0.0000, 0.0000, 0.0000, -0.0266, 0.0212, -0.0968, -0.0301, -0.0042, -0.0006, 511, 0, 0.0000, 0.0000, -0.3133, 0.0000
5.9810, 0.0000, 0.0000, 0.0000, 0.0000, 0.0000, 0.0000, -0.0265, 0.0212, -0.0969, -0.0301, -0.0042, -0.0006, 512, 0, 0.0000, 0.0000, -0.3203, 0.0000
6.0010, 0.0000, 0.0000, 0.0000, 0.0000, 0.0000, 0.0000, -0.0265, 0.0212, -0.0968, -0.0301, -0.0042, -0.0006, 513, 0, 0.0000, 0.0000, -0.3270, 0.0000
6.0210, 0.0000, 0.0000, 0.0000, 0.0000, 0.0000, 0.0000, -0.0265, 0.0212, -0.0969, -0.0301, -0.0043, -0.0007, 514, 0, 0.0000, 0.0000, -0.3337, 0.0000
6.0400, 0.0000, 0.0000, 0.0000, 0.0000, 0.0000, 0.0000, -0.0265, 0.0212, -0.0968, -0.0301, -0.0042, -0.0007, 515, 0, 0.0000, 0.0000, -0.3403, 0.0000
6.0610, 0.0000, 0.0000, 0.0000, 0.0000, 0.0000, 0.0000, -0.0265, 0.0212, -0.0968, -0.0300, -0.0043, -0.0007, 516, 0, 0.0000, 0.0000, -0.3467, 0.0000
6.0810, 0.0000, 0.0000, 0.0000, 0.0000, 0.0000, 0.0000, -0.0266, 0.0212, -0.0969, -0.0301, -0.0042, -0.0007, 517, 0, 0.0000, 0.0000, -0.3537, 0.0000
6.1010, 0.0000, 0.0000, 0.0000, 0.0000, 0.0000, 0.0000, -0.0265, 0.0212, -0.0968, -0.0301, -0.0042, -0.0006, 518, 0, 0.0000, 0.0000, -0.3603, 0.0000
6.1210, 0.0000, 0.0000, 0.0000, 0.0000, 0.0000, 0.0000, -0.0265, 0.0212, -0.0969, -0.0301, -0.0044, -0.0008, 519, 0, 0.0000, 0.0000, -0.3670, 0.0000
6.1400, 0.0000, 0.0000, 0.0000, 0.0000, 0.0000, 0.0000, -0.0265, 0.0212, -0.0969, -0.0300, -0.0042, -0.0007, 520, 0, 0.0000, 0.0000, -0.3737, 0.0000
6.1610, 0.0000, 0.0000, 0.0000, 0.0000, 0.0000, 0.0000, -0.0265, 0.0212, -0.0968, -0.0301, -0.0042, -0.0006, 521, 0, 0.0000, 0.0000, -0.3800, 0.0000
6.1810, 0.0000, 0.0000, 0.0000, 0.0000, 0.0000, 0.0000, -0.0266, 0.0212, -0.0969, -0.0303, -0.0042, -0.0008, 522, 0, 0.0000, 0.0000, -0.3870, 0.0000
6.2010, 0.0000, 0.0000, 0.0000, 0.0000, 0.0000, 0.0000, -0.0265, 0.0213, -0.0968, -0.0302, -0.0043, -0.0007, 523, 0, 0.0000, 0.0000, -0.3937, 0.0000
6.2210, 0.0000, 0.0000, 0.0000, 0.0000, 0.0000, 0.0000, -0.0264, 0.0211, -0.0968, -0.0295, -0.0046, -0.0009, 524, 0, 0.0000, 0.0000, -0.4003, 0.0000
6.2400, 0.0000, 0.0000, 0.0000, 0.0000, 0.0000, 0.0000, -0.0265, 0.0213, -0.0969, -0.0304, -0.0039, -0.0001, 525, 0, 0.0000, 0.0000, -0.4070, 0.0000
6.2610, 0.0000, 0.0000, 0.0000, 0.0000, 0.0000, 0.0000, -0.0263, 0.0212, -0.0968, -0.0296, -0.0047, -0.0016, 526, 0, 0.0000, 0.0000, -0.4133, 0.0000
6.2810, 0.0000, 0.0000, 0.0000, 0.0000, 0.0000, 0.0000, -0.0264, 0.0213, -0.0968, -0.0300, -0.0043, -0.0009, 527, 0, 0.0000, 0.0000, -0.4203, 0.0000
6.3010, 0.0000, 0.0000, 0.0000, 0.0000, 0.0000, 0.0000, -0.0265, 0.0212, -0.0969, -0.0295, -0.0042, -0.0009, 528, 0, 0.0000, 0.0000, -0.4270, 0.0000
6.3210, 0.0000, 0.0000, 0.0000, 0.0000, 0.0000, 0.0000, -0.0264, 0.0212, -0.0968, -0.0289, -0.0046, -0.0008, 529, 0, 0.0000, 0.0000, -0.4337, 0.0000
6.3400, 0.0000, 0.0000, 0.0000, 0.0000, 0.0000, 0.0000, -0.0266, 0.0213, -0.0969, -0.0298, -0.0038, -0.0006, 530, 0, 0.0000, 0.0000, -0.4403, 0.0000
6.3610, 0.0000, 0.0000, 0.0000, 0.0000, 0.0000, 0.0000, -0.0264, 0.0212, -0.0968, -0.0304, -0.0041, -0.0011, 531, 0, 0.0000, 0.0000, -0.4467, 0.0000
6.3810, 0.0000, 0.0000, 0.0000, 0.0000, 0.0000, 0.0000, -0.0264, 0.0212, -0.0969, -0.0299, -0.0040, -0.0003, 532, 0, 0.0000, 0.0000, -0.4537, 0.0000
6.4010, 0.0000, 0.0000, 0.0000, 0.0000, 0.0000, 0.0000, -0.0265, 0.0212, -0.0970, -0.0294, -0.0043, -0.0010, 533, 0, 0.0000, 0.0000, -0.4603, 0.0000
6.4210, 0.0000, 0.0000, 0.0000, 0.0000, 0.0000, 0.0000, -0.0265, 0.0212, -0.0970, -0.0292, -0.0045, -0.0010, 534, 0, 0.0000, 0.0000, -0.4670, 0.0000
6.4400, 0.0000, 0.0000, 0.0000, 0.0000, 0.0000, 0.0000, -0.0265, 0.0212, -0.0969, -0.0302, -0.0043, -0.0008, 535, 0, 0.0000, 0.0000, -0.4737, 0.0000
6.4600, 0.0000, 0.0000, 0.0000, 0.0000, 0.0000, 0.0000, -0.0264, 0.0213, -0.0969, -0.0303, -0.0044, -0.0008, 536, 0, 0.0000, 0.0000, -0.4800, 0.0000
6.4810, 0.0000, 0.0000, 0.0000, 0.0000, 0.0000, 0.0000, -0.0265, 0.0213, -0.0969, -0.0295, -0.0046, -0.0015, 537, 0, 0.0000, 0.0000, -0.4867, 0.0000
6.5010, 0.0000, 0.0000, 0.0000, 0.0000, 0.0000, 0.0000, -0.0264, 0.0213, -0.0971, -0.0295, -0.0046, -0.0007, 538, 0, 0.0000, 0.0000, -0.4937, 0.0000
6.5210, 0.0000, 0.0000, 0.0000, 0.0000, 0.0000, 0.0000, -0.0264, 0.0211, -0.0970, -0.0297, -0.0045, -0.0008, 539, 0, 0.0000, 0.0000, -0.5003, 0.0000
6.5410, 0.0000, 0.0000, 0.0000, 0.0000, 0.0000, 0.0000, -0.0264, 0.0213, -0.0970, -0.0300, -0.0045, -0.0005, 540, 0, 0.0000, 0.0000, -0.5070, 0.0000
6.5610, 0.0000, 0.0000, 0.0000, 0.0000, 0.0000, 0.0000, -0.0264, 0.0212, -0.0970, -0.0298, -0.0045, -0.0012, 541, 0, 0.0000, 0.0000, -0.5137, 0.0000
6.5810, 0.0000, 0.0000, 0.0000, 0.0000, 0.0000, 0.0000, -0.0264, 0.0214, -0.0968, -0.0294, -0.0049, -0.0015, 542, 0, 0.0000, 0.0000, -0.5203, 0.0000
6.6010, 0.0000, 0.0000, 0.0000, 0.0000, 0.0000, 0.0000, -0.0264, 0.0212, -0.0970, -0.0292, -0.0046, -0.0015, 543, 0, 0.0000, 0.0000, -0.5270, 0.0000
6.6210, 0.0000, 0.0000, 0.0000, 0.0000, 0.0000, 0.0000, -0.0263, 0.0214, -0.0969, -0.0298, -0.0046, -0.0010, 544, 0, 0.0000, 0.0000, -0.5337, 0.0000
6.6400, 0.0000, 0.0000, 0.0000, 0.0000, 0.0000, 0.0000, -0.0264, 0.0212, -0.0970, -0.0299, -0.0045, -0.0007, 545, 0, 0.0000, 0.0000, -0.5403, 0.0000
6.6610, 0.0000, 0.0000, 0.0000, 0.0000, 0.0000, 0.0000, -0.0264, 0.0213, -0.0971, -0.0298, -0.0043, -0.0006, 546, 0, 0.0000, 0.0000, -0.5467, 0.0000
6.6810, 0.0000, 0.0000, 0.0000, 0.0000, 0.0000, 0.0000, -0.0265, 0.0212, -0.0969, -0.0295, -0.0046, -0.0008, 547, 0, 0.0000, 0.0000, -0.5537, 0.0000
6.7010, 0.0000, 0.0000, 0.0000, 0.0000, 0.0000, 0.0000, -0.0265, 0.0214, -0.0971, -0.0299, -0.0044, -0.0012, 548, 0, 0.0000, 0.0000, -0.5603, 0.0000
6.7210, 0.0000, 0.0000, 0.0000, 0.0000, 0.0000, 0.0000, -0.0265, 0.0212, -0.0969, -0.0300, -0.0043, -0.0007, 549, 0, 0.0000, 0.0000, -0.5670, 0.0000
6.7410, 0.0000, 0.0000, 0.0000, 0.0000, 0.0000, 0.0000, -0.0264, 0.0213, -0.0970, -0.0300, -0.0040, -0.0004, 550, 0, 0.0000, 0.0000, -0.5737, 0.0000
6.7610, 0.0000, 0.0000, 0.0000, 0.0000, 0.0000, 0.0000, -0.0265, 0.0212, -0.0969, -0.0296, -0.0045, -0.0009, 551, 0, 0.0000, 0.0000, -0.5803, 0.0000
6.7810, 0.0000, 0.0000, 0.0000, 0.0000, 0.0000, 0.0000, -0.0265, 0.0213, -0.0970, -0.0299, -0.0045, -0.0009, 552, 0, 0.0000, 0.0000, -0.5870, 0.0000
6.8000, 0.0000, 0.0000, 0.0000, 0.0000, 0.0000, 0.0000, -0.0265, 0.0212, -0.0969, -0.0298, -0.0048, -0.0012, 553, 0, 0.0000, 0.0000, -0.5937, 0.0000
6.8210, 0.0000, 0.0000, 0.0000, 0.0000, 0.0000, 0.0000, -0.0264, 0.0213, -0.0969, -0.0296, -0.0047, -0.0015, 554, 0, 0.0000, 0.0000, -0.6000, 0.0000
6.8400, 0.0000, 0.0000, 0.0000, 0.0000, 0.0000, 0.0000, -0.0264, 0.0212, -0.0971, -0.0295, -0.0043, -0.0004, 555, 0, 0.0000, 0.0000, -0.6070, 0.0000
6.8610, 0.0000, 0.0000, 0.0000, 0.0000, 0.0000, 0.0000, -0.0265, 0.0212, -0.0969, -0.0297, -0.0043, -0.0012, 556, 0, 0.0000, 0.0000, -0.6133, 0.0000
6.8810, 0.0000, 0.0000, 0.0000, 0.0000, 0.0000, 0.0000, -0.0264, 0.0213, -0.0970, -0.0298, -0.0045, -0.0005, 557, 0, 0.0000, 0.0000, -0.6203, 0.0000
6.9010, 0.0000, 0.0000, 0.0000, 0.0000, 0.0000, 0.0000, -0.0264, 0.0213, -0.0970, -0.0299, -0.0045, -0.0010, 558, 0, 0.0000, 0.0000, -0.6270, 0.0000
6.9210, 0.0000, 0.0000, 0.0000, 0.0000, 0.0000, 0.0000, -0.0264, 0.0213, -0.0969, -0.0298, -0.0047, -0.0010, 559, 0, 0.0000, 0.0000, -0.6337, 0.0000
6.9400, 0.0000, 0.0000, 0.0000, 0.0000, 0.0000, 0.0000, -0.0264, 0.0212, -0.0970, -0.0292, -0.0046, -0.0015, 560, 0, 0.0000, 0.0000, -0.6403, 0.0000
6.9610, 0.0000, 0.0000, 0.0000, 0.0000, 0.0000, 0.0000, -0.0264, 0.0212, -0.0969, -0.0298, -0.0042, -0.0008, 561, 0, 0.0000, 0.0000, -0.6467, 0.0000
6.9810, 0.0000, 0.0000, 0.0000, 0.0000, 0.0000, 0.0000, -0.0265, 0.0213, -0.0971, -0.0300, -0.0043, -0.0005, 562, 0, 0.0000, 0.0000, -0.6537, 0.0000
7.0010, 0.0000, 0.0000, 0.0000, 0.0000, 0.0000, 0.0000, -0.0265, 0.0212, -0.0969, -0.0298, -0.0043, -0.0010, 563, 0, 0.0000, 0.0000, -0.6603, 0.0000
7.0210, 0.0000, 0.0000, 0.0000, 0.0000, 0.0000, 0.0000, -0.0264, 0.0213, -0.0970, -0.0298, -0.0047, -0.0009, 564, 0, 0.0000, 0.0000, -0.6670, 0.0000
7.0510, 0.0000, 0.0000, 0.0000, 0.0000, 0.0000, 0.0000, -0.0264, 0.0213, -0.0969, -0.0293, -0.0047, -0.0017, 565, 0, 0.0000, 0.0000, -0.6737, 0.0000
7.0610, 0.0000, 0.0000, 0.0000, 0.0000, 0.0000, 0.0000, -0.0265, 0.0212, -0.0969, -0.0299, -0.0042, -0.0008, 566, 0, 0.0000, 0.0000, -0.6837, 0.0000
7.0810, 0.0000, 0.0000, 0.0000, 0.0000, 0.0000, 0.0000, -0.0265, 0.0213, -0.0970, -0.0300, -0.0044, -0.0006, 567, 0, 0.0000, 0.0000, -0.6870, 0.0000
7.1010, 0.0000, 0.0000, 0.0000, 0.0000, 0.0000, 0.0000, -0.0265, 0.0212, -0.0969, -0.0296, -0.0044, -0.0009, 568, 0, 0.0000, 0.0000, -0.6937, 0.0000
7.1310, 0.0000, 0.0000, 0.0000, 0.0000, 0.0000, 0.0000, -0.0264, 0.0213, -0.0970, -0.0296, -0.0045, -0.0009, 569, 0, 0.0000, 0.0000, -0.7003, 0.0000
7.1400, 0.0000, 0.0000, 0.0000, 0.0000, 0.0000, 0.0000, -0.0264, 0.0212, -0.0969, -0.0295, -0.0045, -0.0012, 570, 0, 0.0000, 0.0000, -0.7103, 0.0000
7.1610, 0.0000, 0.0000, 0.0000, 0.0000, 0.0000, 0.0000, -0.0265, 0.0213, -0.0969, -0.0299, -0.0041, -0.0011, 571, 0, 0.0000, 0.0000, -0.7133, 0.0000
7.1810, 0.0000, 0.0000, 0.0000, 0.0000, 0.0000, 0.0000, -0.0265, 0.0214, -0.0971, -0.0298, -0.0044, -0.0009, 572, 0, 0.0000, 0.0000, -0.7203, 0.0000
7.2000, 0.0000, 0.0000, 0.0000, 0.0000, 0.0000, 0.0000, -0.0264, 0.0212, -0.0968, -0.0298, -0.0043, -0.0010, 573, 0, 0.0000, 0.0000, -0.7270, 0.0000
7.2210, 0.0000, 0.0000, 0.0000, 0.0000, 0.0000, 0.0000, -0.0264, 0.0213, -0.0970, -0.0295, -0.0046, -0.0014, 574, 0, 0.0000, 0.0000, -0.7333, 0.0000
7.2510, 0.0000, 0.0000, 0.0000, 0.0000, 0.0000, 0.0000, -0.0265, 0.0212, -0.0969, -0.0298, -0.0042, -0.0007, 575, 0, 0.0000, 0.0000, -0.7403, 0.0000
7.2610, 0.0000, 0.0000, 0.0000, 0.0000, 0.0000, 0.0000, -0.0265, 0.0213, -0.0970, -0.0298, -0.0043, -0.0009, 576, 0, 0.0000, 0.0000, -0.7503, 0.0000
7.2900, 0.0000, 0.0000, 0.0000, 0.0000, 0.0000, 0.0000, -0.0265, 0.0213, -0.0970, -0.0298, -0.0044, -0.0010, 577, 0, 0.0000, 0.0000, -0.7537, 0.0000
7.3010, 0.0000, 0.0000, 0.0000, 0.0000, 0.0000, 0.0000, -0.0264, 0.0212, -0.0969, -0.0295, -0.0042, -0.0015, 578, 0, 0.0000, 0.0000, -0.7633, 0.0000
7.3210, 0.0000, 0.0000, 0.0000, 0.0000, 0.0000, 0.0000, -0.0264, 0.0213, -0.0971, -0.0296, -0.0044, -0.0004, 579, 0, 0.0000, 0.0000, -0.7670, 0.0000
7.3510, 0.0000, 0.0000, 0.0000, 0.0000, 0.0000, 0.0000, -0.0265, 0.0213, -0.0969, -0.0300, -0.0042, -0.0010, 580, 0, 0.0000, 0.0000, -0.7737, 0.0000
7.3710, 0.0000, 0.0000, 0.0000, 0.0000, 0.0000, 0.0000, -0.0265, 0.0214, -0.0969, -0.0298, -0.0045, -0.0007, 581, 0, 0.0000, 0.0000, -0.7837, 0.0000
7.3810, 0.0000, 0.0000, 0.0000, 0.0000, 0.0000, 0.0000, -0.0264, 0.0213, -0.0969, -0.0297, -0.0045, -0.0012, 582, 0, 0.0000, 0.0000, -0.7903, 0.0000
7.4000, 0.0000, 0.0000, 0.0000, 0.0000, 0.0000, 0.0000, -0.0264, 0.0212, -0.0969, -0.0295, -0.0045, -0.0009, 583, 0, 0.0000, 0.0000, -0.7937, 0.0000
7.4310, 0.0000, 0.0000, 0.0000, 0.0000, 0.0000, 0.0000, -0.0265, 0.0213, -0.0970, -0.0298, -0.0040, -0.0009, 584, 0, 0.0000, 0.0000, -0.8000, 0.0000
7.4400, 0.0000, 0.0000, 0.0000, 0.0000, 0.0000, 0.0000, -0.0265, 0.0213, -0.0969, -0.0298, -0.0045, -0.0010, 585, 0, 0.0000, 0.0000, -0.8103, 0.0000
7.4610, 0.0000, 0.0000, 0.0000, 0.0000, 0.0000, 0.0000, -0.0264, 0.0213, -0.0970, -0.0296, -0.0040, -0.0009, 586, 0, 0.0000, 0.0000, -0.8133, 0.0000
7.4810, 0.0000, 0.0000, 0.0000, 0.0000, 0.0000, 0.0000, -0.0264, 0.0212, -0.0969, -0.0294, -0.0042, -0.0013, 587, 0, 0.0000, 0.0000, -0.8203, 0.0000
7.5010, 0.0000, 0.0000, 0.0000, 0.0000, 0.0000, 0.0000, -0.0264, 0.0213, -0.0969, -0.0299, -0.0041, -0.0008, 588, 0, 0.0000, 0.0000, -0.8270, 0.0000
7.5210, 0.0000, 0.0000, 0.0000, 0.0000, 0.0000, 0.0000, -0.0265, 0.0212, -0.0969, -0.0297, -0.0039, -0.0009, 589, 0, 0.0000, 0.0000, -0.8337, 0.0000
7.5510, 0.0000, 0.0000, 0.0000, 0.0000, 0.0000, 0.0000, -0.0265, 0.0213, -0.0969, -0.0298, -0.0044, -0.0010, 590, 0, 0.0000, 0.0000, -0.8403, 0.0000
7.5710, 0.0000, 0.0000, 0.0000, 0.0000, 0.0000, 0.0000, -0.0264, 0.0212, -0.0969, -0.0294, -0.0042, -0.0013, 591, 0, 0.0000, 0.0000, -0.8503, 0.0000
7.5810, 0.0000, 0.0000, 0.0000, 0.0000, 0.0000, 0.0000, -0.0265, 0.0212, -0.0969, -0.0295, -0.0042, -0.0009, 592, 0, 0.0000, 0.0000, -0.8570, 0.0000
7.6010, 0.0000, 0.0000, 0.0000, 0.0000, 0.0000, 0.0000, -0.0264, 0.0213, -0.0971, -0.0297, -0.0043, -0.0008, 593, 0, 0.0000, 0.0000, -0.8603, 0.0000
7.6210, 0.0000, 0.0000, 0.0000, 0.0000, 0.0000, 0.0000, -0.0264, 0.0212, -0.0969, -0.0295, -0.0042, -0.0009, 594, 0, 0.0000, 0.0000, -0.8670, 0.0000
7.6510, 0.0000, 0.0000, 0.0000, 0.0000, 0.0000, 0.0000, -0.0264, 0.0213, -0.0970, -0.0294, -0.0044, -0.0014, 595, 0, 0.0000, 0.0000, -0.8737, 0.0000
7.6610, 0.0000, 0.0000, 0.0000, 0.0000, 0.0000, 0.0000, -0.0264, 0.0212, -0.0970, -0.0295, -0.0043, -0.0011, 596, 0, 0.0000, 0.0000, -0.8837, 0.0000
7.6810, 0.0000, 0.0000, 0.0000, 0.0000, 0.0000, 0.0000, -0.0265, 0.0213, -0.0969, -0.0297, -0.0041, -0.0008, 597, 0, 0.0000, 0.0000, -0.8870, 0.0000
7.7010, 0.0000, 0.0000, 0.0000, 0.0000, 0.0000, 0.0000, -0.0264, 0.0212, -0.0970, -0.0296, -0.0043, -0.0007, 598, 0, 0.0000, 0.0000, -0.8937, 0.0000
7.7210, 0.0000, 0.0000, 0.0000, 0.0000, 0.0000, 0.0000, -0.0264, 0.0212, -0.0967, -0.0294, -0.0044, -0.0014, 599, 0, 0.0000, 0.0000, -0.9003, 0.0000
7.7510, 0.0000, 0.0000, 0.0000, 0.0000, 0.0000, 0.0000, -0.0266, 0.0211, -0.0970, -0.0295, -0.0039, -0.0007, 600, 0, 0.0000, 0.0000, -0.9070, 0.0000
7.7610, 0.0000, 0.0000, 0.0000, 0.0000, 0.0000, 0.0000, -0.0265, 0.0212, -0.0968, -0.0296, -0.0043, -0.0010, 601, 0, 0.0000, 0.0000, -0.9170, 0.0000
7.7810, 0.0000, 0.0000, 0.0000, 0.0000, 0.0000, 0.0000, -0.0265, 0.0213, -0.0970, -0.0296, -0.0037, -0.0009, 602, 0, 0.0000, 0.0000, -0.9203, 0.0000
7.8010, 0.0000, 0.0000, 0.0000, 0.0000, 0.0000, 0.0000, -0.0263, 0.0213, -0.0969, -0.0294, -0.0046, -0.0016, 603, 0, 0.0000, 0.0000, -0.9270, 0.0000
7.8210, 0.0000, 0.0000, 0.0000, 0.0000, 0.0000, 0.0000, -0.0266, 0.0212, -0.0969, -0.0295, -0.0042, -0.0008, 604, 0, 0.0000, 0.0000, -0.9337, 0.0000
7.8400, 0.0000, 0.0000, 0.0000, 0.0000, 0.0000, 0.0000, -0.0265, 0.0212, -0.0970, -0.0296, -0.0040, -0.0007, 605, 0, 0.0000, 0.0000, -0.9403, 0.0000
7.8610, 0.0000, 0.0000, 0.0000, 0.0000, 0.0000, 0.0000, -0.0265, 0.0213, -0.0968, -0.0297, -0.0042, -0.0007, 606, 0, 0.0000, 0.0000, -0.9467, 0.0000
7.8810, 0.0000, 0.0000, 0.0000, 0.0000, 0.0000, 0.0000, -0.0264, 0.0212, -0.0969, -0.0294, -0.0040, -0.0015, 607, 0, 0.0000, 0.0000, -0.9537, 0.0000
7.9010, 0.0000, 0.0000, 0.0000, 0.0000, 0.0000, 0.0000, -0.0265, 0.0212, -0.0969, -0.0295, -0.0043, -0.0006, 608, 0, 0.0000, 0.0000, -0.9603, 0.0000
7.9310, 0.0000, 0.0000, 0.0000, 0.0000, 0.0000, 0.0000, -0.0265, 0.0213, -0.0969, -0.0296, -0.0039, -0.0009, 609, 0, 0.0000, 0.0000, -0.9670, 0.0000
7.9400, 0.0000, 0.0000, 0.0000, 0.0000, 0.0000, 0.0000, -0.0264, 0.0212, -0.0968, -0.0295, -0.0043, -0.0010, 610, 0, 0.0000, 0.0000, -0.9770, 0.0000
7.9710, 0.0000, 0.0000, 0.0000, 0.0000, 0.0000, 0.0000, -0.0264, 0.0214, -0.0969, -0.0294, -0.0041, -0.0013, 611, 0, 0.0000, 0.0000, -0.9800, 0.0000
7.9800, 0.0000, 0.0000, 0.0000, 0.0000, 0.0000, 0.0000, -0.0264, 0.0212, -0.0969, -0.0295, -0.0042, -0.0009, 612, 0, 0.0000, 0.0000, -0.9903, 0.0000
8.0010, 0.0000, 0.0000, 0.0000, 0.0000, 0.0000, 0.0000, -0.0265, 0.0213, -0.0970, -0.0295, -0.0040, -0.0010, 613, 0, 0.0000, 0.0000, -0.9933, 0.0000
8.0210, 0.0000, 0.0000, 0.0000, 0.0000, 0.0000, 0.0000, -0.0264, 0.0213, -0.0969, -0.0297, -0.0040, -0.0008, 614, 0, 0.0000, 0.0000, -1.0000, 0.0000
8.0400, 0.0000, 0.0000, 0.0000, 0.0000, 0.0000, 0.0000, -0.0264, 0.0212, -0.0968, -0.0295, -0.0042, -0.0014, 615, 0, 0.0000, 0.0000, -1.0000, 0.0000
8.0610, 0.0000, 0.0000, 0.0000, 0.0000, 0.0000, 0.0000, -0.0266, 0.0212, -0.0969, -0.0295, -0.0040, -0.0008, 616, 0, 0.0000, 0.0000, -1.0000, 0.0000
8.0810, 0.0000, 0.0000, 0.0000, 0.0000, 0.0000, 0.0000, -0.0264, 0.0213, -0.0968, -0.0296, -0.0042, -0.0009, 617, 0, 0.0000, 0.0000, -1.0000, 0.0000
8.1010, 0.0000, 0.0000, 0.0000, 0.0000, 0.0000, 0.0000, -0.0266, 0.0213, -0.0970, -0.0296, -0.0039, -0.0010, 618, 0, 0.0000, 0.0000, -1.0000, 0.0000
8.1210, 0.0000, 0.0000, 0.0000, 0.0000, 0.0000, 0.0000, -0.0263, 0.0212, -0.0968, -0.0296, -0.0046, -0.0015, 619, 0, 0.0000, 0.0000, -1.0000, 0.0000
8.1510, 0.0000, 0.0000, 0.0000, 0.0000, 0.0000, 0.0000, -0.0264, 0.0213, -0.0970, -0.0295, -0.0037, -0.0007, 620, 0, 0.0000, 0.0000, -1.0000, 0.0000
8.1710, 0.0000, 0.0000, 0.0000, 0.0000, 0.0000, 0.0000, -0.0265, 0.0213, -0.0969, -0.0293, -0.0040, -0.0010, 621, 0, 0.0000, 0.0000, -1.0000, 0.0000
8.1900, 0.0000, 0.0000, 0.0000, 0.0000, 0.0000, 0.0000, -0.0264, 0.0213, -0.0972, -0.0295, -0.0045, -0.0010, 622, 0, 0.0000, 0.0000, -1.0000, 0.0000
8.2010, 0.0000, 0.0000, 0.0000, 0.0000, 0.0000, 0.0000, -0.0265, 0.0213, -0.0974, -0.0295, -0.0051, -0.0014, 623, 0, 0.0000, 0.0000, -1.0000, 0.0000
8.2210, 0.0000, 0.0000, 0.0000, 0.0000, 0.0000, 0.0000, -0.0263, 0.0214, -0.0978, -0.0297, -0.0059, -0.0018, 624, 0, 0.0000, 0.0000, -1.0000, 0.0000
8.2510, 0.0000, 0.0000, 0.0000, 0.0000, 0.0000, 0.0000, -0.0263, 0.0213, -0.0983, -0.0294, -0.0064, -0.0016, 625, 0, 0.0000, 0.0000, -1.0000, 0.0000
8.2610, 0.0000, 0.0000, 0.0000, 0.0000, 0.0000, 0.0000, -0.0263, 0.0214, -0.0990, -0.0296, -0.0072, -0.0028, 626, 0, 0.0000, 0.0000, -1.0000, 0.0000
8.2810, 0.0000, 0.0000, 0.0000, 0.0000, 0.0000, 0.0000, -0.0261, 0.0214, -0.1003, -0.0294, -0.0080, -0.0056, 627, 0, 0.0000, 0.0000, -1.0000, 0.0000
8.3010, 0.0000, 0.0000, 0.0000, 0.0000, 0.0000, 0.0000, -0.0261, 0.0216, -0.1027, -0.0283, -0.0094, -0.0095, 628, 0, 0.0000, 0.0000, -1.0000, 0.0000
8.3310, 0.0000, 0.0000, 0.0000, 0.0000, 0.0000, 0.0000, -0.0255, 0.0217, -0.1078, -0.0272, -0.0110, -0.0142, 629, 0, 0.0000, 0.0000, -1.0000, 0.0000
8.3510, 0.0000, 0.0000, 0.0000, 0.0000, 0.0000, 0.0000, -0.0250, 0.0223, -0.1143, -0.0265, -0.0122, -0.0170, 630, 0, 0.0000, 0.0000, -1.0000, 0.0000
8.3710, 0.0000, 0.0000, 0.0000, 0.0000, 0.0000, 0.0000, -0.0243, 0.0227, -0.1227, -0.0251, -0.0137, -0.0201, 631, 0, 0.0000, 0.0000, -1.0000, 0.0000
8.3910, 0.0000, 0.0000, 0.0000, 0.0000, 0.0000, 0.0000, -0.0237, 0.0233, -0.1330, -0.0236, -0.0154, -0.0215, 632, 0, 0.0000, 0.0000, -1.0000, 0.0000
8.4110, 0.0000, 0.0000, 0.0000, 0.0000, 0.0000, 0.0000, -0.0229, 0.0241, -0.1446, -0.0219, -0.0167, -0.0244, 633, 0, 0.0000, 0.0000, -1.0000, 0.0000
8.4310, 0.0000, 0.0000, 0.0000, 0.0000, 0.0000, 0.0000, -0.0219, 0.0251, -0.1579, -0.0203, -0.0176, -0.0267, 634, 0, 0.0000, 0.0000, -1.0000, 0.0000
8.4510, 0.0000, 0.0000, 0.0000, 0.0000, 0.0000, 0.0000, -0.0209, 0.0259, -0.1721, -0.0186, -0.0173, -0.0295, 635, 0, 0.0000, 0.0000, -1.0000, 0.0000
8.4710, 0.0000, 0.0000, 0.0000, 0.0000, 0.0000, 0.0000, -0.0199, 0.0267, -0.1876, -0.0169, -0.0161, -0.0326, 636, 0, 0.0000, 0.0000, -1.0000, 0.0000
8.4900, 0.0000, 0.0000, 0.0000, 0.0000, 0.0000, 0.0000, -0.0185, 0.0277, -0.2036, -0.0149, -0.0161, -0.0344, 637, 0, 0.0000, 0.0000, -1.0000, 0.0000
8.5110, 0.0000, 0.0000, 0.0000, 0.0000, 0.0000, 0.0000, -0.0170, 0.0288, -0.2203, -0.0134, -0.0158, -0.0355, 638, 0, 0.0000, 0.0000, -1.0000, 0.0000
8.5310, 0.0000, 0.0000, 0.0000, 0.0000, 0.0000, 0.0000, -0.0156, 0.0298, -0.2373, -0.0121, -0.0143, -0.0375, 639, 0, 0.0000, 0.0000, -1.0000, 0.0000
8.5510, 0.0000, 0.0000, 0.0000, 0.0000, 0.0000, 0.0000, -0.0140, 0.0307, -0.2546, -0.0102, -0.0139, -0.0394, 640, 0, 0.0000, 0.0000, -1.0000, 0.0000
8.5710, 0.0000, 0.0000, 0.0000, 0.0000, 0.0000, 0.0000, -0.0124, 0.0316, -0.2723, -0.0088, -0.0125, -0.0409, 641, 0, 0.0000, 0.0000, -1.0000, 0.0000
8.5900, 0.0000, 0.0000, 0.0000, 0.0000, 0.0000, 0.0000, -0.0105, 0.0327, -0.2898, -0.0070, -0.0117, -0.0426, 642, 0, 0.0000, 0.0000, -1.0000, 0.0000
8.6110, 0.0000, 0.0000, 0.0000, 0.0000, 0.0000, 0.0000, -0.0086, 0.0335, -0.3075, -0.0053, -0.0109, -0.0437, 643, 0, 0.0000, 0.0000, -1.0000, 0.0000
8.6310, 0.0000, 0.0000, 0.0000, 0.0000, 0.0000, 0.0000, -0.0067, 0.0343, -0.3251, -0.0034, -0.0096, -0.0455, 644, 0, 0.0000, 0.0000, -1.0000, 0.0000
8.6510, 0.0000, 0.0000, 0.0000, 0.0000, 0.0000, 0.0000, -0.0047, 0.0352, -0.3426, -0.0019, -0.0080, -0.0481, 645, 0, 0.0000, 0.0000, -1.0000, 0.0000
8.6710, 0.0000, 0.0000, 0.0000, 0.0000, 0.0000, 0.0000, -0.0026, 0.0359, -0.3600, -0.0003, -0.0067, -0.0497, 646, 0, 0.0000, 0.0000, -1.0000, 0.0000
8.6900, 0.0000, 0.0000, 0.0000, 0.0000, 0.0000, 0.0000, -0.0005, 0.0366, -0.3771, 0.0011, -0.0048, -0.0518, 647, 0, 0.0000, 0.0000, -1.0000, 0.0000
8.7110, 0.0000, 0.0000, 0.0000, 0.0000, 0.0000, 0.0000, 0.0017, 0.0373, -0.3940, 0.0027, -0.0033, -0.0516, 648, 0, 0.0000, 0.0000, -1.0000, 0.0000
8.7310, 0.0000, 0.0000, 0.0000, 0.0000, 0.0000, 0.0000, 0.0040, 0.0379, -0.4106, 0.0040, -0.0019, -0.0527, 649, 0, 0.0000, 0.0000, -1.0000, 0.0000
8.7510, 0.0000, 0.0000, 0.0000, 0.0000, 0.0000, 0.0000, 0.0061, 0.0383, -0.4268, 0.0055, -0.0012, -0.0536, 650, 0, 0.0000, 0.0000, -1.0000, 0.0000
8.7710, 0.0000, 0.0000, 0.0000, 0.0000, 0.0000, 0.0000, 0.0085, 0.0388, -0.4427, 0.0067, -0.0002, -0.0546, 651, 0, 0.0000, 0.0000, -1.0000, 0.0000
8.7910, 0.0000, 0.0000, 0.0000, 0.0000, 0.0000, 0.0000, 0.0108, 0.0391, -0.4584, 0.0082, 0.0017, -0.0553, 652, 0, 0.0000, 0.0000, -1.0000, 0.0000
8.8110, 0.0000, 0.0000, 0.0000, 0.0000, 0.0000, 0.0000, 0.0131, 0.0393, -0.4739, 0.0096, 0.0039, -0.0562, 653, 0, 0.0000, 0.0000, -1.0000, 0.0000
8.8310, 0.0000, 0.0000, 0.0000, 0.0000, 0.0000, 0.0000, 0.0154, 0.0395, -0.4888, 0.0106, 0.0058, -0.0567, 654, 0, 0.0000, 0.0000, -1.0000, 0.0000
8.8510, 0.0000, 0.0000, 0.0000, 0.0000, 0.0000, 0.0000, 0.0178, 0.0395, -0.5037, 0.0120, 0.0060, -0.0575, 655, 0, 0.0000, 0.0000, -1.0000, 0.0000
8.8710, 0.0000, 0.0000, 0.0000, 0.0000, 0.0000, 0.0000, 0.0203, 0.0396, -0.5180, 0.0128, 0.0063, -0.0581, 656, 0, 0.0000, 0.0000, -1.0000, 0.0000
8.8910, 0.0000, 0.0000, 0.0000, 0.0000, 0.0000, 0.0000, 0.0226, 0.0396, -0.5322, 0.0139, 0.0069, -0.0581, 657, 0, 0.0000, 0.0000, -1.0000, 0.0000
8.9110, 0.0000, 0.0000, 0.0000, 0.0000, 0.0000, 0.0000, 0.0250, 0.0394, -0.5459, 0.0148, 0.0081, -0.0577, 658, 0, 0.0000, 0.0000, -1.0000, 0.0000
8.9310, 0.0000, 0.0000, 0.0000, 0.0000, 0.0000, 0.0000, 0.0273, 0.0392, -0.5594, 0.0155, 0.0089, -0.0570, 659, 0, 0.0000, 0.0000, -1.0000, 0.0000
8.9510, 0.0000, 0.0000, 0.0000, 0.0000, 0.0000, 0.0000, 0.0297, 0.0390, -0.5726, 0.0158, 0.0094, -0.0552, 660, 0, 0.0000, 0.0000, -1.0000, 0.0000
8.9710, 0.0000, 0.0000, 0.0000, 0.0000, 0.0000, 0.0000, 0.0319, 0.0386, -0.5854, 0.0165, 0.0100, -0.0553, 661, 0, 0.0000, 0.0000, -1.0000, 0.0000
8.9910, 0.0000, 0.0000, 0.0000, 0.0000, 0.0000, 0.0000, 0.0343, 0.0382, -0.5979, 0.0171, 0.0106, -0.0546, 662, 0, 0.0000, 0.0000, -1.0000, 0.0000
9.0110, 0.0000, 0.0000, 0.0000, 0.0000, 0.0000, 0.0000, 0.0366, 0.0376, -0.6101, 0.0176, 0.0110, -0.0546, 663, 0, 0.0000, 0.0000, -1.0000, 0.0000
9.0310, 0.0000, 0.0000, 0.0000, 0.0000, 0.0000, 0.0000, 0.0390, 0.0370, -0.6219, 0.0183, 0.0116, -0.0543, 664, 0, 0.0000, 0.0000, -1.0000, 0.0000
9.0510, 0.0000, 0.0000, 0.0000, 0.0000, 0.0000, 0.0000, 0.0414, 0.0362, -0.6335, 0.0187, 0.0130, -0.0534, 665, 0, 0.0000, 0.0000, -1.0000, 0.0000
9.0710, 0.0000, 0.0000, 0.0000, 0.0000, 0.0000, 0.0000, 0.0438, 0.0354, -0.6447, 0.0194, 0.0130, -0.0532, 666, 0, 0.0000, 0.0000, -1.0000, 0.0000
9.0900, 0.0000, 0.0000, 0.0000, 0.0000, 0.0000, 0.0000, 0.0462, 0.0348, -0.6556, 0.0194, 0.0134, -0.0523, 667, 0, 0.0000, 0.0000, -1.0000, 0.0000
9.1110, 0.0000, 0.0000, 0.0000, 0.0000, 0.0000, 0.0000, 0.0485, 0.0339, -0.6662, 0.0199, 0.0144, -0.0505, 668, 0, 0.0000, 0.0000, -1.0000, 0.0000
9.1310, 0.0000, 0.0000, 0.0000, 0.0000, 0.0000, 0.0000, 0.0508, 0.0329, -0.6762, 0.0202, 0.0150, -0.0497, 669, 0, 0.0000, 0.0000, -1.0000, 0.0000
9.1510, 0.0000, 0.0000, 0.0000, 0.0000, 0.0000, 0.0000, 0.0530, 0.0321, -0.6858, 0.0205, 0.0163, -0.0487, 670, 0, 0.0000, 0.0000, -1.0000, 0.0000
9.1710, 0.0000, 0.0000, 0.0000, 0.0000, 0.0000, 0.0000, 0.0554, 0.0310, -0.6949, 0.0201, 0.0180, -0.0473, 671, 0, 0.0000, 0.0000, -1.0000, 0.0000
9.1900, 0.0000, 0.0000, 0.0000, 0.0000, 0.0000, 0.0000, 0.0577, 0.0299, -0.7037, 0.0202, 0.0180, -0.0473, 672, 0, 0.0000, 0.0000, -1.0000, 0.0000
9.2110, 0.0000, 0.0000, 0.0000, 0.0000, 0.0000, 0.0000, 0.0599, 0.0287, -0.7123, 0.0205, 0.0182, -0.0469, 673, 0, 0.0000, 0.0000, -1.0000, 0.0000
9.2310, 0.0000, 0.0000, 0.0000, 0.0000, 0.0000, 0.0000, 0.0622, 0.0276, -0.7204, 0.0205, 0.0191, -0.0455, 674, 0, 0.0000, 0.0000, -1.0000, 0.0000
9.2510, 0.0000, 0.0000, 0.0000, 0.0000, 0.0000, 0.0000, 0.0642, 0.0265, -0.7285, 0.0202, 0.0198, -0.0441, 675, 0, 0.0000, 0.0000, -1.0000, 0.0000
9.2710, 0.0000, 0.0000, 0.0000, 0.0000, 0.0000, 0.0000, 0.0664, 0.0253, -0.7362, 0.0199, 0.0211, -0.0424, 676, 0, 0.0000, 0.0000, -1.0000, 0.0000
9.2910, 0.0000, 0.0000, 0.0000, 0.0000, 0.0000, 0.0000, 0.0684, 0.0240, -0.7436, 0.0198, 0.0227, -0.0412, 677, 0, 0.0000, 0.0000, -1.0000, 0.0000
9.3110, 0.0000, 0.0000, 0.0000, 0.0000, 0.0000, 0.0000, 0.0704, 0.0227, -0.7510, 0.0193, 0.0239, -0.0396, 678, 0, 0.0000, 0.0000, -1.0000, 0.0000
9.3310, 0.0000, 0.0000, 0.0000, 0.0000, 0.0000, 0.0000, 0.0724, 0.0215, -0.7580, 0.0189, 0.0240, -0.0386, 679, 0, 0.0000, 0.0000, -1.0000, 0.0000
9.3510, 0.0000, 0.0000, 0.0000, 0.0000, 0.0000, 0.0000, 0.0743, 0.0202, -0.7648, 0.0186, 0.0242, -0.0377, 680, 0, 0.0000, 0.0000, -1.0000, 0.0000
9.3710, 0.0000, 0.0000, 0.0000, 0.0000, 0.0000, 0.0000, 0.0763, 0.0189, -0.7715, 0.0180, 0.0240, -0.0365, 681, 0, 0.0000, 0.0000, -1.0000, 0.0000
9.3900, 0.0000, 0.0000, 0.0000, 0.0000, 0.0000, 0.0000, 0.0781, 0.0176, -0.7780, 0.0177, 0.0242, -0.0349, 682, 0, 0.0000, 0.0000, -1.0000, 0.0000
9.4110, 0.0000, 0.0000, 0.0000, 0.0000, 0.0000, 0.0000, 0.0799, 0.0163, -0.7844, 0.0170, 0.0243, -0.0339, 683, 0, 0.0000, 0.0000, -1.0000, 0.0000
9.4310, 0.0000, 0.0000, 0.0000, 0.0000, 0.0000, 0.0000, 0.0817, 0.0150, -0.7907, 0.0165, 0.0245, -0.0331, 684, 0, 0.0000, 0.0000, -1.0000, 0.0000
9.4510, 0.0000, 0.0000, 0.0000, 0.0000, 0.0000, 0.0000, 0.0833, 0.0136, -0.7967, 0.0161, 0.0250, -0.0323, 685, 0, 0.0000, 0.0000, -1.0000, 0.0000
9.4710, 0.0000, 0.0000, 0.0000, 0.0000, 0.0000, 0.0000, 0.0851, 0.0123, -0.8027, 0.0155, 0.0253, -0.0311, 686, 0, 0.0000, 0.0000, -1.0000, 0.0000
9.4910, 0.0000, 0.0000, 0.0000, 0.0000, 0.0000, 0.0000, 0.0867, 0.0111, -0.8084, 0.0150, 0.0259, -0.0302, 687, 0, 0.0000, 0.0000, -1.0000, 0.0000
9.5110, 0.0000, 0.0000, 0.0000, 0.0000, 0.0000, 0.0000, 0.0882, 0.0099, -0.8141, 0.0146, 0.0262, -0.0290, 688, 0, 0.0000, 0.0000, -1.0000, 0.0000
9.5310, 0.0000, 0.0000, 0.0000, 0.0000, 0.0000, 0.0000, 0.0898, 0.0087, -0.8197, 0.0138, 0.0257, -0.0277, 689, 0, 0.0000, 0.0000, -1.0000, 0.0000
9.5510, 0.0000, 0.0000, 0.0000, 0.0000, 0.0000, 0.0000, 0.0912, 0.0074, -0.8250, 0.0132, 0.0256, -0.0266, 690, 0, 0.0000, 0.0000, -1.0000, 0.0000
9.5710, 0.0000, 0.0000, 0.0000, 0.0000, 0.0000, 0.0000, 0.0926, 0.0063, -0.8304, 0.0129, 0.0257, -0.0258, 691, 0, 0.0000, 0.0000, -1.0000, 0.0000
9.5900, 0.0000, 0.0000, 0.0000, 0.0000, 0.0000, 0.0000, 0.0940, 0.0051, -0.8355, 0.0120, 0.0257, -0.0255, 692, 0, 0.0000, 0.0000, -1.0000, 0.0000
9.6110, 0.0000, 0.0000, 0.0000, 0.0000, 0.0000, 0.0000, 0.0951, 0.0040, -0.8405, 0.0116, 0.0256, -0.0260, 693, 0, 0.0000, 0.0000, -1.0000, 0.0000
9.6310, 0.0000, 0.0000, 0.0000, 0.0000, 0.0000, 0.0000, 0.0963, 0.0029, -0.8455, 0.0111, 0.0260, -0.0257, 694, 0, 0.0000, 0.0000, -1.0000, 0.0000
9.6510, 0.0000, 0.0000, 0.0000, 0.0000, 0.0000, 0.0000, 0.0974, 0.0018, -0.8503, 0.0105, 0.0260, -0.0249, 695, 0, 0.0000, 0.0000, -1.0000, 0.0000
9.6710, 0.0000, 0.0000, 0.0000, 0.0000, 0.0000, 0.0000, 0.0985, 0.0009, -0.8550, 0.0098, 0.0256, -0.0239, 696, 0, 0.0000, 0.0000, -1.0000, 0.0000
9.6900, 0.0000, 0.0000, 0.0000, 0.0000, 0.0000, 0.0000, 0.0996, -0.0002, -0.8596, 0.0092, 0.0251, -0.0234, 697, 0, 0.0000, 0.0000, -1.0000, 0.0000
9.7110, 0.0000, 0.0000, 0.0000, 0.0000, 0.0000, 0.0000, 0.1006, -0.0010, -0.8642, 0.0086, 0.0237, -0.0229, 698, 0, 0.0000, 0.0000, -1.0000, 0.0000
9.7310, 0.0000, 0.0000, 0.0000, 0.0000, 0.0000, 0.0000, 0.1015, -0.0019, -0.8684, 0.0082, 0.0236, -0.0218, 699, 0, 0.0000, 0.0000, -1.0000, 0.0000
9.7510, 0.0000, 0.0000, 0.0000, 0.0000, 0.0000, 0.0000, 0.1023, -0.0027, -0.8722, 0.0075, 0.0248, -0.0202, 700, 0, 0.0000, 0.0000, -1.0000, 0.0000
9.7710, 0.0000, 0.0000, 0.0000, 0.0000, 0.0000, 0.0000, 0.1031, -0.0035, -0.8755, 0.0070, 0.0265, -0.0178, 701, 0, 0.0000, 0.0000, -1.0000, 0.0000
9.7910, 0.0000, 0.0000, 0.0000, 0.0000, 0.0000, 0.0000, 0.1038, -0.0042, -0.8785, 0.0067, 0.0275, -0.0171, 702, 0, 0.0000, 0.0000, -1.0000, 0.0000
9.8110, 0.0000, 0.0000, 0.0000, 0.0000, 0.0000, 0.0000, 0.1046, -0.0048, -0.8814, 0.0064, 0.0277, -0.0170, 703, 0, 0.0000, 0.0000, -1.0000, 0.0000
9.8310, 0.0000, 0.0000, 0.0000, 0.0000, 0.0000, 0.0000, 0.1053, -0.0055, -0.8842, 0.0059, 0.0263, -0.0181, 704, 0, 0.0000, 0.0000, -1.0000, 0.0000
9.8510, 0.0000, 0.0000, 0.0000, 0.0000, 0.0000, 0.0000, 0.1059, -0.0061, -0.8869, 0.0056, 0.0265, -0.0181, 705, 0, 0.0000, 0.0000, -1.0000, 0.0000
9.8710, 0.0000, 0.0000, 0.0000, 0.0000, 0.0000, 0.0000, 0.1064, -0.0065, -0.8894, 0.0050, 0.0262, -0.0175, 706, 0, 0.0000, 0.0000, -1.0000, 0.0000
9.8910, 0.0000, 0.0000, 0.0000, 0.0000, 0.0000, 0.0000, 0.1069, -0.0071, -0.8919, 0.0046, 0.0250, -0.0174, 707, 0, 0.0000, 0.0000, -1.0000, 0.0000
9.9110, 0.0000, 0.0000, 0.0000, 0.0000, 0.0000, 0.0000, 0.1075, -0.0074, -0.8944, 0.0045, 0.0238, -0.0178, 708, 0, 0.0000, 0.0000, -1.0000, 0.0000
9.9310, 0.0000, 0.0000, 0.0000, 0.0000, 0.0000, 0.0000, 0.1079, -0.0077, -0.8970, 0.0039, 0.0233, -0.0175, 709, 0, 0.0000, 0.0000, -1.0000, 0.0000
9.9500, 0.0000, 0.0000, 0.0000, 0.0000, 0.0000, 0.0000, 0.1082, -0.0080, -0.8994, 0.0037, 0.0226, -0.0176, 710, 0, 0.0000, 0.0000, -1.0000, 0.0000
9.9710, 0.0000, 0.0000, 0.0000, 0.0000, 0.0000, 0.0000, 0.1085, -0.0081, -0.9020, 0.0034, 0.0216, -0.0179, 711, 0, 0.0000, 0.0000, -1.0000, 0.0000
9.9900, 0.0000, 0.0000, 0.0000, 0.0000, 0.0000, 0.0000, 0.1088, -0.0083, -0.9045, 0.0030, 0.0209, -0.0179, 712, 0, 0.0000, 0.0000, -1.0000, 0.0000
10.0110, 0.0000, 0.0000, 0.0000, 0.0000, 0.0000, 0.0000, 0.1091, -0.0083, -0.9070, 0.0028, 0.0201, -0.0179, 713, 0, 0.0000, 0.0000, -1.0000, 0.0000
10.0310, 0.0000, 0.0000, 0.0000, 0.0000, 0.0000, 0.0000, 0.1093, -0.0083, -0.9094, 0.0023, 0.0193, -0.0179, 714, 0, 0.0037, 0.0037, -1.0018, 0.0000
10.0510, 0.0000, 0.0000, 0.0000, 0.0000, 0.0000, 0.0000, 0.1096, -0.0082, -0.9119, 0.0021, 0.0184, -0.0180, 715, 0, 0.0103, 0.0103, -1.0052, 0.0000
10.0710, 0.0000, 0.0000, 0.0000, 0.0000, 0.0000, 0.0000, 0.1096, -0.0080, -0.9140, 0.0019, 0.0182, -0.0187, 716, 0, 0.0170, 0.0170, -1.0085, 0.0000
10.0910, 0.0000, 0.0000, 0.0000, 0.0000, 0.0000, 0.0000, 0.1097, -0.0078, -0.9163, 0.0015, 0.0172, -0.0193, 717, 0, 0.0237, 0.0237, -1.0118, 0.0000
10.1110, 0.0000, 0.0000, 0.0000, 0.0000, 0.0000, 0.0000, 0.1099, -0.0075, -0.9186, 0.0011, 0.0157, -0.0200, 718, 0, 0.0303, 0.0303, -1.0152, 0.0000
10.1310, 0.0000, 0.0000, 0.0000, 0.0000, 0.0000, 0.0000, 0.1099, -0.0072, -0.9210, 0.0009, 0.0140, -0.0207, 719, 0, 0.0370, 0.0370, -1.0185, 0.0000
10.1510, 0.0000, 0.0000, 0.0000, 0.0000, 0.0000, 0.0000, 0.1100, -0.0067, -0.9237, 0.0005, 0.0130, -0.0207, 720, 0, 0.0437, 0.0437, -1.0218, 0.0000
10.1710, 0.0000, 0.0000, 0.0000, 0.0000, 0.0000, 0.0000, 0.1099, -0.0062, -0.9263, 0.0002, 0.0119, -0.0204, 721, 0, 0.0503, 0.0503, -1.0252, 0.0000
10.1900, 0.0000, 0.0000, 0.0000, 0.0000, 0.0000, 0.0000, 0.1099, -0.0055, -0.9293, -0.0001, 0.0099, -0.0205, 722, 0, 0.0570, 0.0570, -1.0285, 0.0000
10.2110, 0.0000, 0.0000, 0.0000, 0.0000, 0.0000, 0.0000, 0.1100, -0.0048, -0.9323, -0.0003, 0.0085, -0.0202, 723, 0, 0.0633, 0.0633, -1.0317, 0.0000
10.2310, 0.0000, 0.0000, 0.0000, 0.0000, 0.0000, 0.0000, 0.1099, -0.0039, -0.9355, -0.0008, 0.0066, -0.0201, 724, 0, 0.0703, 0.0703, -1.0352, 0.0000
10.2510, 0.0000, 0.0000, 0.0000, 0.0000, 0.0000, 0.0000, 0.1099, -0.0031, -0.9388, -0.0014, 0.0049, -0.0195, 725, 0, 0.0770, 0.0770, -1.0385, 0.0000
10.2710, 0.0000, 0.0000, 0.0000, 0.0000, 0.0000, 0.0000, 0.1099, -0.0022, -0.9419, -0.0018, 0.0036, -0.0197, 726, 0, 0.0837, 0.0837, -1.0418, 0.0000
10.2910, 0.0000, 0.0000, 0.0000, 0.0000, 0.0000, 0.0000, 0.1099, -0.0012, -0.9452, -0.0020, 0.0012, -0.0200, 727, 0, 0.0903, 0.0903, -1.0452, 0.0000
10.3110, 0.0000, 0.0000, 0.0000, 0.0000, 0.0000, 0.0000, 0.1099, -0.0002, -0.9483, -0.0028, -0.0000, -0.0195, 728, 0, 0.0970, 0.0970, -1.0485, 0.0000
10.3310, 0.0000, 0.0000, 0.0000, 0.0000, 0.0000, 0.0000, 0.1100, 0.0010, -0.9515, -0.0032, -0.0014, -0.0183, 729, 0, 0.1037, 0.1037, -1.0518, 0.0000
10.3510, 0.0000, 0.0000, 0.0000, 0.0000, 0.0000, 0.0000, 0.1102, 0.0022, -0.9545, -0.0034, -0.0032, -0.0188, 730, 0, 0.1103, 0.1103, -1.0552, 0.0000
10.3710, 0.0000, 0.0000, 0.0000, 0.0000, 0.0000, 0.0000, 0.1104, 0.0034, -0.9572, -0.0036, -0.0054, -0.0198, 731, 0, 0.1170, 0.1170, -1.0585, 0.0000
10.3910, 0.0000, 0.0000, 0.0000, 0.0000, 0.0000, 0.0000, 0.1108, 0.0047, -0.9600, -0.0042, -0.0089, -0.0199, 732, 0, 0.1237, 0.1237, -1.0618, 0.0000
10.4100, 0.0000, 0.0000, 0.0000, 0.0000, 0.0000, 0.0000, 0.1112, 0.0061, -0.9624, -0.0049, -0.0109, -0.0196, 733, 0, 0.1303, 0.1303, -1.0652, 0.0000
10.4310, 0.0000, 0.0000, 0.0000, 0.0000, 0.0000, 0.0000, 0.1118, 0.0074, -0.9646, -0.0050, -0.0127, -0.0183, 734, 0, 0.1367, 0.1367, -1.0683, 0.0000
10.4500, 0.0000, 0.0000, 0.0000, 0.0000, 0.0000, 0.0000, 0.1123, 0.0089, -0.9667, -0.0055, -0.0155, -0.0187, 735, 0, 0.1437, 0.1437, -1.0718, 0.0000
10.4710, 0.0000, 0.0000, 0.0000, 0.0000, 0.0000, 0.0000, 0.1129, 0.0105, -0.9688, -0.0059, -0.0181, -0.0176, 736, 0, 0.1500, 0.1500, -1.0750, 0.0000
10.4900, 0.0000, 0.0000, 0.0000, 0.0000, 0.0000, 0.0000, 0.1139, 0.0121, -0.9709, -0.0060, -0.0205, -0.0156, 737, 0, 0.1570, 0.1570, -1.0785, 0.0000
10.5110, 0.0000, 0.0000, 0.0000, 0.0000, 0.0000, 0.0000, 0.1148, 0.0138, -0.9730, -0.0060, -0.0228, -0.0144, 738, 0, 0.1633, 0.1633, -1.0817, 0.0000
10.5310, 0.0000, 0.0000, 0.0000, 0.0000, 0.0000, 0.0000, 0.1158, 0.0156, -0.9750, -0.0065, -0.0235, -0.0132, 739, 0, 0.1703, 0.1703, -1.0852, 0.0000
10.5510, 0.0000, 0.0000, 0.0000, 0.0000, 0.0000, 0.0000, 0.1168, 0.0174, -0.9769, -0.0071, -0.0241, -0.0141, 740, 0, 0.1770, 0.1770, -1.0885, 0.0000
10.5710, 0.0000, 0.0000, 0.0000, 0.0000, 0.0000, 0.0000, 0.1181, 0.0193, -0.9789, -0.0069, -0.0251, -0.0143, 741, 0, 0.1837, 0.1837, -1.0918, 0.0000
10.5900, 0.0000, 0.0000, 0.0000, 0.0000, 0.0000, 0.0000, 0.1196, 0.0212, -0.9810, -0.0076, -0.0264, -0.0134, 742, 0, 0.1903, 0.1903, -1.0952, 0.0000
10.6110, 0.0000, 0.0000, 0.0000, 0.0000, 0.0000, 0.0000, 0.1212, 0.0232, -0.9832, -0.0079, -0.0286, -0.0123, 743, 0, 0.1967, 0.1967, -1.0983, 0.0000
10.6310, 0.0000, 0.0000, 0.0000, 0.0000, 0.0000, 0.0000, 0.1229, 0.0254, -0.9853, -0.0078, -0.0296, -0.0115, 744, 0, 0.2037, 0.2037, -1.1018, 0.0000
10.6510, 0.0000, 0.0000, 0.0000, 0.0000, 0.0000, 0.0000, 0.1247, 0.0276, -0.9875, -0.0083, -0.0293, -0.0124, 745, 0, 0.2103, 0.2103, -1.1052, 0.0000
10.6710, 0.0000, 0.0000, 0.0000, 0.0000, 0.0000, 0.0000, 0.1267, 0.0298, -0.9896, -0.0088, -0.0298, -0.0134, 746, 0, 0.2170, 0.2170, -1.1085, 0.0000
10.6900, 0.0000, 0.0000, 0.0000, 0.0000, 0.0000, 0.0000, 0.1288, 0.0322, -0.9918, -0.0089, -0.0312, -0.0130, 747, 0, 0.2237, 0.2237, -1.1118, 0.0000
10.7110, 0.0000, 0.0000, 0.0000, 0.0000, 0.0000, 0.0000, 0.1313, 0.0347, -0.9940, -0.0089, -0.0328, -0.0109, 748, 0, 0.2300, 0.2300, -1.1150, 0.0000
10.7310, 0.0000, 0.0000, 0.0000, 0.0000, 0.0000, 0.0000, 0.1337, 0.0373, -0.9962, -0.0092, -0.0333, -0.0098, 749, 0, 0.2370, 0.2370, -1.1185, 0.0000
10.7510, 0.0000, 0.0000, 0.0000, 0.0000, 0.0000, 0.0000, 0.1361, 0.0400, -0.9983, -0.0092, -0.0316, -0.0110, 750, 0, 0.2437, 0.2437, -1.1218, 0.0000
10.7710, 0.0000, 0.0000, 0.0000, 0.0000, 0.0000, 0.0000, 0.1387, 0.0425, -1.0006, -0.0096, -0.0303, -0.0125, 751, 0, 0.2503, 0.2503, -1.1252, 0.0000
10.7900, 0.0000, 0.0000, 0.0000, 0.0000, 0.0000, 0.0000, 0.1416, 0.0453, -1.0025, -0.0099, -0.0295, -0.0138, 752, 0, 0.2570, 0.2570, -1.1285, 0.0000
10.8110, 0.0000, 0.0000, 0.0000, 0.0000, 0.0000, 0.0000, 0.1445, 0.0480, -1.0045, -0.0103, -0.0280, -0.0159, 753, 0, 0.2633, 0.2633, -1.1317, 0.0000
10.8310, 0.0000, 0.0000, 0.0000, 0.0000, 0.0000, 0.0000, 0.1474, 0.0506, -1.0063, -0.0107, -0.0229, -0.0233, 754, 0, 0.2703, 0.2703, -1.1352, 0.0000
10.8510, 0.0000, 0.0000, 0.0000, 0.0000, 0.0000, 0.0000, 0.1502, 0.0532, -1.0077, -0.0112, -0.0158, -0.0342, 755, 0, 0.2770, 0.2770, -1.1385, 0.0000
10.8710, 0.0000, 0.0000, 0.0000, 0.0000, 0.0000, 0.0000, 0.1533, 0.0558, -1.0094, -0.0114, -0.0127, -0.0389, 756, 0, 0.2837, 0.2837, -1.1418, 0.0000
10.8900, 0.0000, 0.0000, 0.0000, 0.0000, 0.0000, 0.0000, 0.1566, 0.0589, -1.0105, -0.0115, -0.0136, -0.0360, 757, 0, 0.2903, 0.2903, -1.1452, 0.0000
10.9110, 0.0000, 0.0000, 0.0000, 0.0000, 0.0000, 0.0000, 0.1602, 0.0620, -1.0120, -0.0118, -0.0140, -0.0320, 758, 0, 0.2967, 0.2967, -1.1483, 0.0000
10.9310, 0.0000, 0.0000, 0.0000, 0.0000, 0.0000, 0.0000, 0.1636, 0.0650, -1.0135, -0.0115, -0.0145, -0.0294, 759, 0, 0.3037, 0.3037, -1.1518, 0.0000
10.9510, 0.0000, 0.0000, 0.0000, 0.0000, 0.0000, 0.0000, 0.1673, 0.0681, -1.0150, -0.0119, -0.0169, -0.0247, 760, 0, 0.3103, 0.3103, -1.1552, 0.0000
10.9710, 0.0000, 0.0000, 0.0000, 0.0000, 0.0000, 0.0000, 0.1710, 0.0713, -1.0167, -0.0123, -0.0205, -0.0208, 761, 0, 0.3170, 0.3170, -1.1585, 0.0000
10.9900, 0.0000, 0.0000, 0.0000, 0.0000, 0.0000, 0.0000, 0.1748, 0.0744, -1.0184, -0.0120, -0.0228, -0.0167, 762, 0, 0.3237, 0.3237, -1.1618, 0.0000
11.0110, 0.0000, 0.0000, 0.0000, 0.0000, 0.0000, 0.0000, 0.1788, 0.0776, -1.0203, -0.0120, -0.0249, -0.0130, 763, 0, 0.3300, 0.3300, -1.1650, 0.0000
11.0310, 0.0000, 0.0000, 0.0000, 0.0000, 0.0000, 0.0000, 0.1828, 0.0809, -1.0223, -0.0123, -0.0266, -0.0108, 764, 0, 0.3370, 0.3370, -1.1685, 0.0000
11.0510, 0.0000, 0.0000, 0.0000, 0.0000, 0.0000, 0.0000, 0.1870, 0.0841, -1.0245, -0.0122, -0.0285, -0.0085, 765, 0, 0.3437, 0.3437, -1.1718, 0.0000
11.0700, 0.0000, 0.0000, 0.0000, 0.0000, 0.0000, 0.0000, 0.1912, 0.0875, -1.0265, -0.0119, -0.0287, -0.0072, 766, 0, 0.3503, 0.3503, -1.1752, 0.0000
11.0910, 0.0000, 0.0000, 0.0000, 0.0000, 0.0000, 0.0000, 0.1954, 0.0908, -1.0288, -0.0121, -0.0264, -0.0078, 767, 0, 0.3567, 0.3567, -1.1783, 0.0000
11.1110, 0.0000, 0.0000, 0.0000, 0.0000, 0.0000, 0.0000, 0.1999, 0.0943, -1.0311, -0.0118, -0.0262, -0.0064, 768, 0, 0.3637, 0.3637, -1.1818, 0.0000
11.1310, 0.0000, 0.0000, 0.0000, 0.0000, 0.0000, 0.0000, 0.2045, 0.0979, -1.0333, -0.0119, -0.0258, -0.0047, 769, 0, 0.3703, 0.3703, -1.1852, 0.0000
11.1500, 0.0000, 0.0000, 0.0000, 0.0000, 0.0000, 0.0000, 0.2091, 0.1016, -1.0356, -0.0114, -0.0223, -0.0062, 770, 0, 0.3770, 0.3770, -1.1885, 0.0000
11.1710, 0.0000, 0.0000, 0.0000, 0.0000, 0.0000, 0.0000, 0.2138, 0.1052, -1.0378, -0.0115, -0.0195, -0.0080, 771, 0, 0.3833, 0.3833, -1.1917, 0.0000
11.1910, 0.0000, 0.0000, 0.0000, 0.0000, 0.0000, 0.0000, 0.2187, 0.1091, -1.0401, -0.0111, -0.0198, -0.0066, 772, 0, 0.3903, 0.3903, -1.1952, 0.0000
11.2110, 0.0000, 0.0000, 0.0000, 0.0000, 0.0000, 0.0000, 0.2238, 0.1130, -1.0424, -0.0108, -0.0221, -0.0044, 773, 0, 0.3970, 0.3970, -1.1985, 0.0000
11.2300, 0.0000, 0.0000, 0.0000, 0.0000, 0.0000, 0.0000, 0.2290, 0.1171, -1.0448, -0.0108, -0.0232, -0.0030, 774, 0, 0.4037, 0.4037, -1.2018, 0.0000
11.2510, 0.0000, 0.0000, 0.0000, 0.0000, 0.0000, 0.0000, 0.2342, 0.1211, -1.0471, -0.0107, -0.0208, -0.0045, 775, 0, 0.4100, 0.4100, -1.2050, 0.0000
11.2710, 0.0000, 0.0000, 0.0000, 0.0000, 0.0000, 0.0000, 0.2394, 0.1253, -1.0496, -0.0107, -0.0195, -0.0053, 776, 0, 0.4170, 0.4170, -1.2085, 0.0000
11.2900, 0.0000, 0.0000, 0.0000, 0.0000, 0.0000, 0.0000, 0.2449, 0.1297, -1.0518, -0.0107, -0.0197, -0.0042, 777, 0, 0.4237, 0.4237, -1.2118, 0.0000
11.3100, 0.0000, 0.0000, 0.0000, 0.0000, 0.0000, 0.0000, 0.2502, 0.1339, -1.0541, -0.0109, -0.0169, -0.0050, 778, 0, 0.4300, 0.4300, -1.2150, 0.0000
11.3310, 0.0000, 0.0000, 0.0000, 0.0000, 0.0000, 0.0000, 0.2556, 0.1383, -1.0563, -0.0106, -0.0120, -0.0086, 779, 0, 0.4367, 0.4367, -1.2183, 0.0000
11.3510, 0.0000, 0.0000, 0.0000, 0.0000, 0.0000, 0.0000, 0.2611, 0.1426, -1.0585, -0.0103, -0.0074, -0.0109, 780, 0, 0.4437, 0.4437, -1.2218, 0.0000
11.3710, 0.0000, 0.0000, 0.0000, 0.0000, 0.0000, 0.0000, 0.2667, 0.1473, -1.0606, -0.0100, -0.0082, -0.0102, 781, 0, 0.4503, 0.4503, -1.2252, 0.0000
11.3900, 0.0000, 0.0000, 0.0000, 0.0000, 0.0000, 0.0000, 0.2727, 0.1520, -1.0629, -0.0098, -0.0112, -0.0065, 782, 0, 0.4570, 0.4570, -1.2285, 0.0000
11.4110, 0.0000, 0.0000, 0.0000, 0.0000, 0.0000, 0.0000, 0.2786, 0.1569, -1.0653, -0.0099, -0.0144, -0.0034, 783, 0, 0.4633, 0.4633, -1.2317, 0.0000
11.4310, 0.0000, 0.0000, 0.0000, 0.0000, 0.0000, 0.0000, 0.2845, 0.1619, -1.0678, -0.0096, -0.0166, -0.0006, 784, 0, 0.4703, 0.4703, -1.2352, 0.0000
11.4510, 0.0000, 0.0000, 0.0000, 0.0000, 0.0000, 0.0000, 0.2905, 0.1669, -1.0704, -0.0094, -0.0184, 0.0007, 785, 0, 0.4770, 0.4770, -1.2385, 0.0000
11.4710, 0.0000, 0.0000, 0.0000, 0.0000, 0.0000, 0.0000, 0.2964, 0.1720, -1.0731, -0.0094, -0.0192, 0.0019, 786, 0, 0.4837, 0.4837, -1.2418, 0.0000
11.4900, 0.0000, 0.0000, 0.0000, 0.0000, 0.0000, 0.0000, 0.3025, 0.1772, -1.0760, -0.0093, -0.0204, 0.0035, 787, 0, 0.4903, 0.4903, -1.2452, 0.0000
11.5110, 0.0000, 0.0000, 0.0000, 0.0000, 0.0000, 0.0000, 0.3086, 0.1826, -1.0787, -0.0091, -0.0218, 0.0048, 788, 0, 0.4967, 0.4967, -1.2483, 0.0000
11.5310, 0.0000, 0.0000, 0.0000, 0.0000, 0.0000, 0.0000, 0.3149, 0.1881, -1.0818, -0.0089, -0.0223, 0.0056, 789, 0, 0.5037, 0.5037, -1.2518, 0.0000
11.5510, 0.0000, 0.0000, 0.0000, 0.0000, 0.0000, 0.0000, 0.3212, 0.1936, -1.0848, -0.0088, -0.0231, 0.0066, 790, 0, 0.5103, 0.5103, -1.2552, 0.0000
11.5710, 0.0000, 0.0000, 0.0000, 0.0000, 0.0000, 0.0000, 0.3275, 0.1994, -1.0878, -0.0086, -0.0242, 0.0072, 791, 0, 0.5170, 0.5170, -1.2585, 0.0000
11.5900, 0.0000, 0.0000, 0.0000, 0.0000, 0.0000, 0.0000, 0.3341, 0.2052, -1.0911, -0.0085, -0.0250, 0.0072, 792, 0, 0.5237, 0.5237, -1.2618, 0.0000
11.6110, 0.0000, 0.0000, 0.0000, 0.0000, 0.0000, 0.0000, 0.3407, 0.2112, -1.0941, -0.0085, -0.0254, 0.0077, 793, 0, 0.5300, 0.5300, -1.2650, 0.0000
11.6310, 0.0000, 0.0000, 0.0000, 0.0000, 0.0000, 0.0000, 0.3474, 0.2173, -1.0974, -0.0079, -0.0256, 0.0078, 794, 0, 0.5370, 0.5370, -1.2685, 0.0000
11.6510, 0.0000, 0.0000, 0.0000, 0.0000, 0.0000, 0.0000, 0.3541, 0.2234, -1.1007, -0.0078, -0.0262, 0.0077, 795, 0, 0.5437, 0.5437, -1.2718, 0.0000
11.6710, 0.0000, 0.0000, 0.0000, 0.0000, 0.0000, 0.0000, 0.3611, 0.2298, -1.1040, -0.0075, -0.0261, 0.0071, 796, 0, 0.5503, 0.5503, -1.2752, 0.0000
11.6900, 0.0000, 0.0000, 0.0000, 0.0000, 0.0000, 0.0000, 0.3679, 0.2360, -1.1074, -0.0074, -0.0229, 0.0028, 797, 0, 0.5570, 0.5570, -1.2785, 0.0000
11.7110, 0.0000, 0.0000, 0.0000, 0.0000, 0.0000, 0.0000, 0.3748, 0.2425, -1.1108, -0.0069, -0.0211, 0.0007, 798, 0, 0.5633, 0.5633, -1.2817, 0.0000
11.7310, 0.0000, 0.0000, 0.0000, 0.0000, 0.0000, 0.0000, 0.3820, 0.2492, -1.1142, -0.0067, -0.0205, 0.0010, 799, 0, 0.5703, 0.5703, -1.2852, 0.0000
11.7510, 0.0000, 0.0000, 0.0000, 0.0000, 0.0000, 0.0000, 0.3892, 0.2559, -1.1175, -0.0062, -0.0206, 0.0022, 800, 0, 0.5770, 0.5770, -1.2885, 0.0000
11.7710, 0.0000, 0.0000, 0.0000, 0.0000, 0.0000, 0.0000, 0.3966, 0.2629, -1.1209, -0.0060, -0.0206, 0.0028, 801, 0, 0.5837, 0.5837, -1.2918, 0.0000
11.7900, 0.0000, 0.0000, 0.0000, 0.0000, 0.0000, 0.0000, 0.4041, 0.2697, -1.1242, -0.0057, -0.0210, 0.0028, 802, 0, 0.5903, 0.5903, -1.2952, 0.0000
11.8110, 0.0000, 0.0000, 0.0000, 0.0000, 0.0000, 0.0000, 0.4116, 0.2768, -1.1274, -0.0053, -0.0214, 0.0022, 803, 0, 0.5967, 0.5967, -1.2983, 0.0000
11.8310, 0.0000, 0.0000, 0.0000, 0.0000, 0.0000, 0.0000, 0.4191, 0.2839, -1.1307, -0.0047, -0.0213, 0.0019, 804, 0, 0.6037, 0.6037, -1.3018, 0.0000
11.8510, 0.0000, 0.0000, 0.0000, 0.0000, 0.0000, 0.0000, 0.4266, 0.2910, -1.1337, -0.0044, -0.0214, 0.0019, 805, 0, 0.6103, 0.6103, -1.3052, 0.0000
11.8710, 0.0000, 0.0000, 0.0000, 0.0000, 0.0000, 0.0000, 0.4344, 0.2984, -1.1368, -0.0039, -0.0201, 0.0005, 806, 0, 0.6170, 0.6170, -1.3085, 0.0000
11.8900, 0.0000, 0.0000, 0.0000, 0.0000, 0.0000, 0.0000, 0.4421, 0.3057, -1.1399, -0.0035, -0.0193, -0.0003, 807, 0, 0.6237, 0.6237, -1.3118, 0.0000
11.9110, 0.0000, 0.0000, 0.0000, 0.0000, 0.0000, 0.0000, 0.4501, 0.3129, -1.1430, -0.0034, -0.0191, -0.0006, 808, 0, 0.6300, 0.6300, -1.3150, 0.0000
11.9310, 0.0000, 0.0000, 0.0000, 0.0000, 0.0000, 0.0000, 0.4580, 0.3205, -1.1459, -0.0027, -0.0193, -0.0023, 809, 0, 0.6370, 0.6370, -1.3185, 0.0000
11.9510, 0.0000, 0.0000, 0.0000, 0.0000, 0.0000, 0.0000, 0.4661, 0.3281, -1.1490, -0.0023, -0.0184, -0.0027, 810, 0, 0.6437, 0.6437, -1.3218, 0.0000
11.9710, 0.0000, 0.0000, 0.0000, 0.0000, 0.0000, 0.0000, 0.4744, 0.3357, -1.1521, -0.0020, -0.0171, -0.0034, 811, 0, 0.6503, 0.6503, -1.3252, 0.0000
11.9900, 0.0000, 0.0000, 0.0000, 0.0000, 0.0000, 0.0000, 0.4824, 0.3433, -1.1550, -0.0017, -0.0163, -0.0050, 812, 0, 0.6570, 0.6570, -1.3285, 0.0000
12.0110, 0.0000, 0.0000, 0.0000, 0.0000, 0.0000, 0.0000, 0.4908, 0.3511, -1.1581, -0.0011, -0.0155, -0.0054, 813, 0, 0.6633, 0.6633, -1.3317, 0.0000
12.0310, 0.0000, 0.0000, 0.0000, 0.0000, 0.0000, 0.0000, 0.4990, 0.3588, -1.1611, -0.0006, -0.0140, -0.0053, 814, 0, 0.6703, 0.6703, -1.3352, 0.0000
12.0510, 0.0000, 0.0000, 0.0000, 0.0000, 0.0000, 0.0000, 0.5073, 0.3667, -1.1641, -0.0000, -0.0127, -0.0055, 815, 0, 0.6770, 0.6770, -1.3385, 0.0000
12.0710, 0.0000, 0.0000, 0.0000, 0.0000, 0.0000, 0.0000, 0.5158, 0.3747, -1.1673, 0.0006, -0.0126, -0.0057, 816, 0, 0.6837, 0.6837, -1.3418, 0.0000
12.0900, 0.0000, 0.0000, 0.0000, 0.0000, 0.0000, 0.0000, 0.5243, 0.3827, -1.1704, 0.0011, -0.0121, -0.0063, 817, 0, 0.6903, 0.6903, -1.3452, 0.0000
12.1110, 0.0000, 0.0000, 0.0000, 0.0000, 0.0000, 0.0000, 0.5327, 0.3907, -1.1738, 0.0014, -0.0112, -0.0076, 818, 0, 0.6967, 0.6967, -1.3483, 0.0000
12.1310, 0.0000, 0.0000, 0.0000, 0.0000, 0.0000, 0.0000, 0.5411, 0.3988, -1.1770, 0.0016, -0.0082, -0.0092, 819, 0, 0.7037, 0.7037, -1.3518, 0.0000
12.1510, 0.0000, 0.0000, 0.0000, 0.0000, 0.0000, 0.0000, 0.5492, 0.4068, -1.1804, 0.0017, -0.0019, -0.0147, 820, 0, 0.7103, 0.7103, -1.3552, 0.0000
12.1710, 0.0000, 0.0000, 0.0000, 0.0000, 0.0000, 0.0000, 0.5574, 0.4151, -1.1841, 0.0023, 0.0018, -0.0161, 821, 0, 0.7170, 0.7170, -1.3585, 0.0000
12.1900, 0.0000, 0.0000, 0.0000, 0.0000, 0.0000, 0.0000, 0.5658, 0.4234, -1.1878, 0.0021, 0.0026, -0.0151, 822, 0, 0.7237, 0.7237, -1.3618, 0.0000
12.2110, 0.0000, 0.0000, 0.0000, 0.0000, 0.0000, 0.0000, 0.5741, 0.4319, -1.1919, 0.0023, 0.0031, -0.0141, 823, 0, 0.7300, 0.7300, -1.3650, 0.0000
12.2310, 0.0000, 0.0000, 0.0000, 0.0000, 0.0000, 0.0000, 0.5822, 0.4404, -1.1959, 0.0022, 0.0024, -0.0142, 824, 0, 0.7370, 0.7370, -1.3685, 0.0000
12.2510, 0.0000, 0.0000, 0.0000, 0.0000, 0.0000, 0.0000, 0.5905, 0.4490, -1.2002, 0.0018, 0.0026, -0.0141, 825, 0, 0.7437, 0.7437, -1.3718, 0.0000
12.2710, 0.0000, 0.0000, 0.0000, 0.0000, 0.0000, 0.0000, 0.5986, 0.4576, -1.2044, 0.0020, 0.0030, -0.0146, 826, 0, 0.7503, 0.7503, -1.3752, 0.0000
12.2900, 0.0000, 0.0000, 0.0000, 0.0000, 0.0000, 0.0000, 0.6066, 0.4662, -1.2087, 0.0023, 0.0040, -0.0155, 827, 0, 0.7570, 0.7570, -1.3785, 0.0000
12.3110, 0.0000, 0.0000, 0.0000, 0.0000, 0.0000, 0.0000, 0.6144, 0.4749, -1.2130, 0.0026, 0.0045, -0.0166, 828, 0, 0.7633, 0.7633, -1.3817, 0.0000
12.3310, 0.0000, 0.0000, 0.0000, 0.0000, 0.0000, 0.0000, 0.6223, 0.4834, -1.2172, 0.0026, 0.0064, -0.0184, 829, 0, 0.7703, 0.7703, -1.3852, 0.0000
12.3510, 0.0000, 0.0000, 0.0000, 0.0000, 0.0000, 0.0000, 0.6303, 0.4918, -1.2213, 0.0027, 0.0085, -0.0235, 830, 0, 0.7770, 0.7770, -1.3885, 0.0000
12.3710, 0.0000, 0.0000, 0.0000, 0.0000, 0.0000, 0.0000, 0.6381, 0.5004, -1.2256, 0.0029, 0.0091, -0.0270, 831, 0, 0.7837, 0.7837, -1.3918, 0.0000
12.3900, 0.0000, 0.0000, 0.0000, 0.0000, 0.0000, 0.0000, 0.6461, 0.5090, -1.2295, 0.0027, 0.0088, -0.0279, 832, 0, 0.7903, 0.7903, -1.3952, 0.0000
12.4110, 0.0000, 0.0000, 0.0000, 0.0000, 0.0000, 0.0000, 0.6536, 0.5176, -1.2335, 0.0031, 0.0089, -0.0287, 833, 0, 0.7967, 0.7967, -1.3983, 0.0000
12.4310, 0.0000, 0.0000, 0.0000, 0.0000, 0.0000, 0.0000, 0.6615, 0.5261, -1.2374, 0.0030, 0.0089, -0.0299, 834, 0, 0.8037, 0.8037, -1.4018, 0.0000
12.4510, 0.0000, 0.0000, 0.0000, 0.0000, 0.0000, 0.0000, 0.6693, 0.5345, -1.2411, 0.0035, 0.0084, -0.0309, 835, 0, 0.8103, 0.8103, -1.4052, 0.0000
12.4710, 0.0000, 0.0000, 0.0000, 0.0000, 0.0000, 0.0000, 0.6770, 0.5430, -1.2446, 0.0035, 0.0080, -0.0319, 836, 0, 0.8170, 0.8170, -1.4085, 0.0000
12.4900, 0.0000, 0.0000, 0.0000, 0.0000, 0.0000, 0.0000, 0.6849, 0.5515, -1.2483, 0.0039, 0.0080, -0.0330, 837, 0, 0.8237, 0.8237, -1.4118, 0.0000
12.5110, 0.0000, 0.0000, 0.0000, 0.0000, 0.0000, 0.0000, 0.6924, 0.5598, -1.2517, 0.0039, 0.0072, -0.0342, 838, 0, 0.8300, 0.8300, -1.4150, 0.0000
12.5310, 0.0000, 0.0000, 0.0000, 0.0000, 0.0000, 0.0000, 0.7000, 0.5681, -1.2552, 0.0040, 0.0063, -0.0351, 839, 0, 0.8370, 0.8370, -1.4185, 0.0000
12.5510, 0.0000, 0.0000, 0.0000, 0.0000, 0.0000, 0.0000, 0.7078, 0.5763, -1.2585, 0.0040, 0.0063, -0.0355, 840, 0, 0.8437, 0.8437, -1.4218, 0.0000
12.5710, 0.0000, 0.0000, 0.0000, 0.0000, 0.0000, 0.0000, 0.7153, 0.5844, -1.2617, 0.0041, 0.0058, -0.0368, 841, 0, 0.8503, 0.8503, -1.4252, 0.0000
12.5900, 0.0000, 0.0000, 0.0000, 0.0000, 0.0000, 0.0000, 0.7230, 0.5925, -1.2651, 0.0042, 0.0054, -0.0379, 842, 0, 0.8570, 0.8570, -1.4285, 0.0000
12.6110, 0.0000, 0.0000, 0.0000, 0.0000, 0.0000, 0.0000, 0.7304, 0.6005, -1.2682, 0.0042, 0.0049, -0.0390, 843, 0, 0.8633, 0.8633, -1.4317, 0.0000
12.6310, 0.0000, 0.0000, 0.0000, 0.0000, 0.0000, 0.0000, 0.7381, 0.6086, -1.2716, 0.0044, 0.0051, -0.0396, 844, 0, 0.8703, 0.8703, -1.4352, 0.0000
12.6510, 0.0000, 0.0000, 0.0000, 0.0000, 0.0000, 0.0000, 0.7455, 0.6164, -1.2749, 0.0048, 0.0046, -0.0395, 845, 0, 0.8770, 0.8770, -1.4385, 0.0000
12.6710, 0.0000, 0.0000, 0.0000, 0.0000, 0.0000, 0.0000, 0.7527, 0.6241, -1.2780, 0.0051, 0.0046, -0.0400, 846, 0, 0.8837, 0.8837, -1.4418, 0.0000
12.6900, 0.0000, 0.0000, 0.0000, 0.0000, 0.0000, 0.0000, 0.7601, 0.6319, -1.2814, 0.0052, 0.0050, -0.0390, 847, 0, 0.8903, 0.8903, -1.4452, 0.0000
12.7110, 0.0000, 0.0000, 0.0000, 0.0000, 0.0000, 0.0000, 0.7675, 0.6396, -1.2847, 0.0054, 0.0048, -0.0389, 848, 0, 0.8967, 0.8967, -1.4483, 0.0000
12.7300, 0.0000, 0.0000, 0.0000, 0.0000, 0.0000, 0.0000, 0.7750, 0.6473, -1.2881, 0.0058, 0.0047, -0.0394, 849, 0, 0.9037, 0.9037, -1.4518, 0.0000
12.7500, 0.0000, 0.0000, 0.0000, 0.0000, 0.0000, 0.0000, 0.7823, 0.6550, -1.2913, 0.0056, 0.0054, -0.0393, 850, 0, 0.9100, 0.9100, -1.4550, 0.0000
12.7700, 0.0000, 0.0000, 0.0000, 0.0000, 0.0000, 0.0000, 0.7896, 0.6626, -1.2949, 0.0056, 0.0057, -0.0396, 851, 0, 0.9167, 0.9167, -1.4583, 0.0000
12.7900, 0.0000, 0.0000, 0.0000, 0.0000, 0.0000, 0.0000, 0.7970, 0.6702, -1.2984, 0.0058, 0.0052, -0.0395, 852, 0, 0.9233, 0.9233, -1.4617, 0.0000
12.8100, 0.0000, 0.0000, 0.0000, 0.0000, 0.0000, 0.0000, 0.8042, 0.6777, -1.3019, 0.0059, 0.0040, -0.0393, 853, 0, 0.9300, 0.9300, -1.4650, 0.0000
12.8300, 0.0000, 0.0000, 0.0000, 0.0000, 0.0000, 0.0000, 0.8115, 0.6852, -1.3056, 0.0057, 0.0029, -0.0389, 854, 0, 0.9367, 0.9367, -1.4683, 0.0000
12.8500, 0.0000, 0.0000, 0.0000, 0.0000, 0.0000, 0.0000, 0.8186, 0.6925, -1.3091, 0.0061, 0.0025, -0.0389, 855, 0, 0.9433, 0.9433, -1.4717, 0.0000
12.8700, 0.0000, 0.0000, 0.0000, 0.0000, 0.0000, 0.0000, 0.8259, 0.6998, -1.3129, 0.0061, 0.0025, -0.0387, 856, 0, 0.9500, 0.9500, -1.4750, 0.0000
12.8900, 0.0000, 0.0000, 0.0000, 0.0000, 0.0000, 0.0000, 0.8329, 0.7070, -1.3166, 0.0061, 0.0020, -0.0390, 857, 0, 0.9567, 0.9567, -1.4783, 0.0000
12.9100, 0.0000, 0.0000, 0.0000, 0.0000, 0.0000, 0.0000, 0.8394, 0.7138, -1.3200, 0.0068, 0.0042, -0.0394, 858, 0, 0.9633, 0.9633, -1.4817, 0.0000
12.9300, 0.0000, 0.0000, 0.0000, 0.0000, 0.0000, 0.0000, 0.8466, 0.7208, -1.3238, 0.0072, 0.0043, -0.0381, 859, 0, 0.9700, 0.9700, -1.4850, 0.0000
12.9500, 0.0000, 0.0000, 0.0000, 0.0000, 0.0000, 0.0000, 0.8537, 0.7280, -1.3275, 0.0072, 0.0045, -0.0369, 860, 0, 0.9767, 0.9767, -1.4883, 0.0000
12.9700, 0.0000, 0.0000, 0.0000, 0.0000, 0.0000, 0.0000, 0.8607, 0.7350, -1.3312, 0.0076, 0.0048, -0.0369, 861, 0, 0.9833, 0.9833, -1.4917, 0.0000
12.9900, 0.0000, 0.0000, 0.0000, 0.0000, 0.0000, 0.0000, 0.8690, 0.7430, -1.3351, 0.0068, 0.0016, -0.0358, 862, 0, 0.9900, 0.9900, -1.4950, 0.0000
13.0110, 0.0000, 0.0000, 0.0000, 0.0000, 0.0000, 0.0000, 0.8759, 0.7498, -1.3389, 0.0064, 0.0009, -0.0363, 863, 0, 0.9967, 0.9967, -1.4983, 0.0000
13.0310, 0.0000, 0.0000, 0.0000, 0.0000, 0.0000, 0.0000, 0.8817, 0.7557, -1.3426, 0.0070, 0.0046, -0.0372, 864, 0, 1.0000, 1.0000, -1.5000, 0.0000
13.0510, 0.0000, 0.0000, 0.0000, 0.0000, 0.0000, 0.0000, 0.8892, 0.7629, -1.3466, 0.0068, 0.0044, -0.0386, 865, 0, 1.0000, 1.0000, -1.5000, 0.0000
13.0710, 0.0000, 0.0000, 0.0000, 0.0000, 0.0000, 0.0000, 0.8957, 0.7692, -1.3505, 0.0067, 0.0124, -0.0461, 866, 0, 1.0000, 1.0000, -1.5000, 0.0000
13.0900, 0.0000, 0.0000, 0.0000, 0.0000, 0.0000, 0.0000, 0.9017, 0.7755, -1.3544, 0.0083, 0.0200, -0.0520, 867, 0, 1.0000, 1.0000, -1.5000, 0.0000
13.1110, 0.0000, 0.0000, 0.0000, 0.0000, 0.0000, 0.0000, 0.9091, 0.7823, -1.3586, 0.0074, 0.0196, -0.0521, 868, 0, 1.0000, 1.0000, -1.5000, 0.0000
13.1310, 0.0000, 0.0000, 0.0000, 0.0000, 0.0000, 0.0000, 0.9159, 0.7891, -1.3627, 0.0073, 0.0164, -0.0485, 869, 0, 1.0000, 1.0000, -1.5000, 0.0000
13.1510, 0.0000, 0.0000, 0.0000, 0.0000, 0.0000, 0.0000, 0.9228, 0.7957, -1.3672, 0.0070, 0.0134, -0.0452, 870, 0, 1.0000, 1.0000, -1.5000, 0.0000
13.1710, 0.0000, 0.0000, 0.0000, 0.0000, 0.0000, 0.0000, 0.9296, 0.8020, -1.3712, 0.0069, 0.0111, -0.0424, 871, 0, 1.0000, 1.0000, -1.5000, 0.0000
13.1900, 0.0000, 0.0000, 0.0000, 0.0000, 0.0000, 0.0000, 0.9360, 0.8084, -1.3753, 0.0068, 0.0109, -0.0421, 872, 0, 1.0000, 1.0000, -1.5000, 0.0000
13.2110, 0.0000, 0.0000, 0.0000, 0.0000, 0.0000, 0.0000, 0.9424, 0.8146, -1.3793, 0.0064, 0.0104, -0.0421, 873, 0, 1.0000, 1.0000, -1.5000, 0.0000
13.2310, 0.0000, 0.0000, 0.0000, 0.0000, 0.0000, 0.0000, 0.9488, 0.8208, -1.3830, 0.0063, 0.0092, -0.0418, 874, 0, 1.0000, 1.0000, -1.5000, 0.0000
13.2500, 0.0000, 0.0000, 0.0000, 0.0000, 0.0000, 0.0000, 0.9552, 0.8269, -1.3869, 0.0064, 0.0102, -0.0426, 875, 0, 1.0000, 1.0000, -1.5000, 0.0000
13.2710, 0.0000, 0.0000, 0.0000, 0.0000, 0.0000, 0.0000, 0.9616, 0.8329, -1.3905, 0.0069, 0.0108, -0.0427, 876, 0, 1.0000, 1.0000, -1.5000, 0.0000
13.2900, 0.0000, 0.0000, 0.0000, 0.0000, 0.0000, 0.0000, 0.9680, 0.8389, -1.3940, 0.0067, 0.0110, -0.0432, 877, 0, 1.0000, 1.0000, -1.5000, 0.0000
13.3110, 0.0000, 0.0000, 0.0000, 0.0000, 0.0000, 0.0000, 0.9741, 0.8448, -1.3975, 0.0068, 0.0109, -0.0435, 878, 0, 1.0000, 1.0000, -1.5000, 0.0000
13.3310, 0.0000, 0.0000, 0.0000, 0.0000, 0.0000, 0.0000, 0.9804, 0.8507, -1.4009, 0.0065, 0.0110, -0.0436, 879, 0, 1.0000, 1.0000, -1.5000, 0.0000
13.3510, 0.0000, 0.0000, 0.0000, 0.0000, 0.0000, 0.0000, 0.9866, 0.8564, -1.4041, 0.0067, 0.0111, -0.0432, 880, 0, 1.0000, 1.0000, -1.5000, 0.0000
13.3710, 0.0000, 0.0000, 0.0000, 0.0000, 0.0000, 0.0000, 0.9928, 0.8621, -1.4072, 0.0071, 0.0120, -0.0436, 881, 0, 1.0000, 1.0000, -1.5000, 0.0000
13.3900, 0.0000, 0.0000, 0.0000, 0.0000, 0.0000, 0.0000, 0.9987, 0.8676, -1.4101, 0.0068, 0.0138, -0.0454, 882, 0, 1.0000, 1.0000, -1.5000, 0.0000
13.4110, 0.0000, 0.0000, 0.0000, 0.0000, 0.0000, 0.0000, 1.0040, 0.8726, -1.4124, 0.0079, 0.0213, -0.0512, 883, 0, 1.0000, 1.0000, -1.5000, 0.0000
13.4310, 0.0000, 0.0000, 0.0000, 0.0000, 0.0000, 0.0000, 1.0101, 0.8780, -1.4149, 0.0079, 0.0279, -0.0603, 884, 0, 1.0000, 1.0000, -1.5000, 0.0000
13.4510, 0.0000, 0.0000, 0.0000, 0.0000, 0.0000, 0.0000, 1.0151, 0.8827, -1.4169, 0.0088, 0.0347, -0.0657, 885, 0, 1.0000, 1.0000, -1.5000, 0.0000
13.4710, 0.0000, 0.0000, 0.0000, 0.0000, 0.0000, 0.0000, 1.0214, 0.8884, -1.4192, 0.0084, 0.0338, -0.0644, 886, 0, 1.0000, 1.0000, -1.5000, 0.0000
13.4900, 0.0000, 0.0000, 0.0000, 0.0000, 0.0000, 0.0000, 1.0270, 0.8935, -1.4213, 0.0079, 0.0321, -0.0620, 887, 0, 1.0000, 1.0000, -1.5000, 0.0000
13.5110, 0.0000, 0.0000, 0.0000, 0.0000, 0.0000, 0.0000, 1.0325, 0.8985, -1.4234, 0.0077, 0.0302, -0.0605, 888, 0, 1.0000, 1.0000, -1.5000, 0.0000
13.5300, 0.0000, 0.0000, 0.0000, 0.0000, 0.0000, 0.0000, 1.0381, 0.9034, -1.4254, 0.0080, 0.0281, -0.0593, 889, 0, 1.0000, 1.0000, -1.5000, 0.0000
13.5510, 0.0000, 0.0000, 0.0000, 0.0000, 0.0000, 0.0000, 1.0432, 0.9080, -1.4275, 0.0075, 0.0271, -0.0585, 890, 0, 1.0000, 1.0000, -1.5000, 0.0000
13.5710, 0.0000, 0.0000, 0.0000, 0.0000, 0.0000, 0.0000, 1.0482, 0.9126, -1.4292, 0.0081, 0.0271, -0.0576, 891, 0, 1.0000, 1.0000, -1.5000, 0.0000
13.5900, 0.0000, 0.0000, 0.0000, 0.0000, 0.0000, 0.0000, 1.0533, 0.9170, -1.4311, 0.0079, 0.0282, -0.0578, 892, 0, 1.0000, 1.0000, -1.5000, 0.0000
13.6110, 0.0000, 0.0000, 0.0000, 0.0000, 0.0000, 0.0000, 1.0582, 0.9212, -1.4331, 0.0080, 0.0289, -0.0579, 893, 0, 1.0000, 1.0000, -1.5000, 0.0000
13.6310, 0.0000, 0.0000, 0.0000, 0.0000, 0.0000, 0.0000, 1.0630, 0.9255, -1.4348, 0.0080, 0.0289, -0.0585, 894, 0, 1.0000, 1.0000, -1.5000, 0.0000
13.6510, 0.0000, 0.0000, 0.0000, 0.0000, 0.0000, 0.0000, 1.0676, 0.9295, -1.4368, 0.0082, 0.0287, -0.0584, 895, 0, 1.0000, 1.0000, -1.5000, 0.0000
13.6710, 0.0000, 0.0000, 0.0000, 0.0000, 0.0000, 0.0000, 1.0723, 0.9335, -1.4385, 0.0079, 0.0287, -0.0590, 896, 0, 1.0000, 1.0000, -1.5000, 0.0000
13.6920, 0.0000, 0.0000, 0.0000, 0.0000, 0.0000, 0.0000, 1.0767, 0.9372, -1.4401, 0.0078, 0.0348, -0.0644, 897, 0, 1.0000, 1.0000, -1.5000, 0.0000
13.7120, 0.0000, 0.0000, 0.0000, 0.0000, 0.0000, 0.0000, 1.0804, 0.9405, -1.4416, 0.0086, 0.0476, -0.0769, 898, 0, 1.0000, 1.0000, -1.5000, 0.0000
13.7320, 0.0000, 0.0000, 0.0000, 0.0000, 0.0000, 0.0000, 1.0839, 0.9434, -1.4430, 0.0095, 0.0628, -0.0894, 899, 0, 1.0000, 1.0000, -1.5000, 0.0000
13.7520, 0.0000, 0.0000, 0.0000, 0.0000, 0.0000, 0.0000, 1.0873, 0.9464, -1.4436, 0.0103, 0.0744, -0.1010, 900, 0, 1.0000, 1.0000, -1.5000, 0.0000
13.7720, 0.0000, 0.0000, 0.0000, 0.0000, 0.0000, 0.0000, 1.0910, 0.9493, -1.4450, 0.0106, 0.0785, -0.1033, 901, 0, 1.0000, 1.0000, -1.5000, 0.0000
13.7920, 0.0000, 0.0000, 0.0000, 0.0000, 0.0000, 0.0000, 1.0945, 0.9524, -1.4460, 0.0102, 0.0745, -0.0975, 902, 0, 1.0000, 1.0000, -1.5000, 0.0000
13.8120, 0.0000, 0.0000, 0.0000, 0.0000, 0.0000, 0.0000, 1.0979, 0.9551, -1.4472, 0.0093, 0.0691, -0.0910, 903, 0, 1.0000, 1.0000, -1.5000, 0.0000
13.8320, 0.0000, 0.0000, 0.0000, 0.0000, 0.0000, 0.0000, 1.1005, 0.9575, -1.4482, 0.0095, 0.0652, -0.0846, 904, 0, 1.0000, 1.0000, -1.5000, 0.0000
13.8520, 0.0000, 0.0000, 0.0000, 0.0000, 0.0000, 0.0000, 1.1039, 0.9600, -1.4498, 0.0084, 0.0577, -0.0804, 905, 0, 1.0000, 1.0000, -1.5000, 0.0000
13.8720, 0.0000, 0.0000, 0.0000, 0.0000, 0.0000, 0.0000, 1.1067, 0.9621, -1.4511, 0.0084, 0.0542, -0.0773, 906, 0, 1.0000, 1.0000, -1.5000, 0.0000
13.8920, 0.0000, 0.0000, 0.0000, 0.0000, 0.0000, 0.0000, 1.1091, 0.9639, -1.4522, 0.0078, 0.0508, -0.0747, 907, 0, 1.0000, 1.0000, -1.5000, 0.0000
13.9120, 0.0000, 0.0000, 0.0000, 0.0000, 0.0000, 0.0000, 1.1114, 0.9657, -1.4533, 0.0076, 0.0473, -0.0714, 908, 0, 1.0000, 1.0000, -1.5000, 0.0000
13.9320, 0.0000, 0.0000, 0.0000, 0.0000, 0.0000, 0.0000, 1.1136, 0.9673, -1.4545, 0.0075, 0.0441, -0.0677, 909, 0, 1.0000, 1.0000, -1.5000, 0.0000
13.9520, 0.0000, 0.0000, 0.0000, 0.0000, 0.0000, 0.0000, 1.1155, 0.9687, -1.4555, 0.0069, 0.0412, -0.0653, 910, 0, 1.0000, 1.0000, -1.5000, 0.0000
13.9720, 0.0000, 0.0000, 0.0000, 0.0000, 0.0000, 0.0000, 1.1174, 0.9701, -1.4567, 0.0073, 0.0387, -0.0618, 911, 0, 1.0000, 1.0000, -1.5000, 0.0000
13.9920, 0.0000, 0.0000, 0.0000, 0.0000, 0.0000, 0.0000, 1.1192, 0.9712, -1.4578, 0.0066, 0.0362, -0.0590, 912, 0, 1.0000, 1.0000, -1.5000, 0.0000
14.0120, 0.0000, 0.0000, 0.0000, 0.0000, 0.0000, 0.0000, 1.1208, 0.9724, -1.4588, 0.0067, 0.0337, -0.0567, 913, 0, 1.0000, 1.0000, -1.5000, 0.0000
14.0320, 0.0000, 0.0000, 0.0000, 0.0000, 0.0000, 0.0000, 1.1224, 0.9733, -1.4600, 0.0066, 0.0303, -0.0545, 914, 0, 1.0000, 1.0000, -1.5000, 0.0000
14.0520, 0.0000, 0.0000, 0.0000, 0.0000, 0.0000, 0.0000, 1.1237, 0.9742, -1.4609, 0.0059, 0.0263, -0.0526, 915, 0, 1.0000, 1.0000, -1.5000, 0.0000
14.0720, 0.0000, 0.0000, 0.0000, 0.0000, 0.0000, 0.0000, 1.1253, 0.9751, -1.4623, 0.0059, 0.0235, -0.0500, 916, 0, 1.0000, 1.0000, -1.5000, 0.0000
14.0920, 0.0000, 0.0000, 0.0000, 0.0000, 0.0000, 0.0000, 1.1265, 0.9759, -1.4633, 0.0060, 0.0211, -0.0482, 917, 0, 1.0000, 1.0000, -1.5000, 0.0000
14.1120, 0.0000, 0.0000, 0.0000, 0.0000, 0.0000, 0.0000, 1.1275, 0.9767, -1.4643, 0.0054, 0.0186, -0.0468, 918, 0, 1.0000, 1.0000, -1.5000, 0.0000
14.1320, 0.0000, 0.0000, 0.0000, 0.0000, 0.0000, 0.0000, 1.1287, 0.9773, -1.4655, 0.0054, 0.0167, -0.0449, 919, 0, 1.0000, 1.0000, -1.5000, 0.0000
14.1520, 0.0000, 0.0000, 0.0000, 0.0000, 0.0000, 0.0000, 1.1300, 0.9782, -1.4666, 0.0062, 0.0155, -0.0429, 920, 0, 1.0000, 1.0000, -1.5000, 0.0000
14.1720, 0.0000, 0.0000, 0.0000, 0.0000, 0.0000, 0.0000, 1.1311, 0.9788, -1.4678, 0.0056, 0.0144, -0.0408, 921, 0, 1.0000, 1.0000, -1.5000, 0.0000
14.1920, 0.0000, 0.0000, 0.0000, 0.0000, 0.0000, 0.0000, 1.1319, 0.9794, -1.4688, 0.0053, 0.0138, -0.0399, 922, 0, 1.0000, 1.0000, -1.5000, 0.0000
14.2120, 0.0000, 0.0000, 0.0000, 0.0000, 0.0000, 0.0000, 1.1332, 0.9801, -1.4700, 0.0058, 0.0123, -0.0376, 923, 0, 1.0000, 1.0000, -1.5000, 0.0000
14.2320, 0.0000, 0.0000, 0.0000, 0.0000, 0.0000, 0.0000, 1.1343, 0.9807, -1.4712, 0.0058, 0.0117, -0.0368, 924, 0, 1.0000, 1.0000, -1.5000, 0.0000
14.2520, 0.0000, 0.0000, 0.0000, 0.0000, 0.0000, 0.0000, 1.1353, 0.9812, -1.4722, 0.0058, 0.0116, -0.0367, 925, 0, 1.0000, 1.0000, -1.5000, 0.0000
14.2720, 0.0000, 0.0000, 0.0000, 0.0000, 0.0000, 0.0000, 1.1363, 0.9818, -1.4733, 0.0056, 0.0111, -0.0368, 926, 0, 1.0000, 1.0000, -1.5000, 0.0000
14.2920, 0.0000, 0.0000, 0.0000, 0.0000, 0.0000, 0.0000, 1.1371, 0.9823, -1.4742, 0.0049, 0.0115, -0.0378, 927, 0, 1.0000, 1.0000, -1.5000, 0.0000
14.3120, 0.0000, 0.0000, 0.0000, 0.0000, 0.0000, 0.0000, 1.1383, 0.9830, -1.4751, 0.0050, 0.0103, -0.0363, 928, 0, 1.0000, 1.0000, -1.5000, 0.0000
14.3320, 0.0000, 0.0000, 0.0000, 0.0000, 0.0000, 0.0000, 1.1395, 0.9837, -1.4761, 0.0055, 0.0087, -0.0351, 929, 0, 1.0000, 1.0000, -1.5000, 0.0000
14.3520, 0.0000, 0.0000, 0.0000, 0.0000, 0.0000, 0.0000, 1.1406, 0.9843, -1.4773, 0.0052, 0.0078, -0.0338, 930, 0, 1.0000, 1.0000, -1.5000, 0.0000
14.3720, 0.0000, 0.0000, 0.0000, 0.0000, 0.0000, 0.0000, 1.1415, 0.9850, -1.4782, 0.0053, 0.0064, -0.0328, 931, 0, 1.0000, 1.0000, -1.5000, 0.0000
14.3920, 0.0000, 0.0000, 0.0000, 0.0000, 0.0000, 0.0000, 1.1426, 0.9857, -1.4794, 0.0052, 0.0052, -0.0320, 932, 0, 1.0000, 1.0000, -1.5000, 0.0000
14.4120, 0.0000, 0.0000, 0.0000, 0.0000, 0.0000, 0.0000, 1.1437, 0.9864, -1.4804, 0.0052, 0.0048, -0.0315, 933, 0, 1.0000, 1.0000, -1.5000, 0.0000
14.4320, 0.0000, 0.0000, 0.0000, 0.0000, 0.0000, 0.0000, 1.1448, 0.9872, -1.4815, 0.0053, 0.0041, -0.0306, 934, 0, 1.0000, 1.0000, -1.5000, 0.0000
14.4520, 0.0000, 0.0000, 0.0000, 0.0000, 0.0000, 0.0000, 1.1459, 0.9879, -1.4828, 0.0051, 0.0043, -0.0301, 935, 0, 1.0000, 1.0000, -1.5000, 0.0000
14.4720, 0.0000, 0.0000, 0.0000, 0.0000, 0.0000, 0.0000, 1.1471, 0.9888, -1.4840, 0.0047, 0.0035, -0.0298, 936, 0, 1.0000, 1.0000, -1.5000, 0.0000
14.4920, 0.0000, 0.0000, 0.0000, 0.0000, 0.0000, 0.0000, 1.1482, 0.9897, -1.4851, 0.0051, 0.0038, -0.0302, 937, 0, 1.0000, 1.0000, -1.5000, 0.0000
14.5120, 0.0000, 0.0000, 0.0000, 0.0000, 0.0000, 0.0000, 1.1494, 0.9904, -1.4862, 0.0048, 0.0040, -0.0300, 938, 0, 1.0000, 1.0000, -1.5000, 0.0000
14.5320, 0.0000, 0.0000, 0.0000, 0.0000, 0.0000, 0.0000, 1.1505, 0.9912, -1.4873, 0.0047, 0.0037, -0.0298, 939, 0, 1.0000, 1.0000, -1.5000, 0.0000
14.5520, 0.0000, 0.0000, 0.0000, 0.0000, 0.0000, 0.0000, 1.1518, 0.9923, -1.4885, 0.0049, 0.0029, -0.0301, 940, 0, 1.0000, 1.0000, -1.5000, 0.0000
14.5720, 0.0000, 0.0000, 0.0000, 0.0000, 0.0000, 0.0000, 1.1531, 0.9931, -1.4899, 0.0047, 0.0030, -0.0302, 941, 0, 1.0000, 1.0000, -1.5000, 0.0000
14.5920, 0.0000, 0.0000, 0.0000, 0.0000, 0.0000, 0.0000, 1.1544, 0.9942, -1.4910, 0.0049, 0.0031, -0.0303, 942, 0, 1.0000, 1.0000, -1.5000, 0.0000
14.6120, 0.0000, 0.0000, 0.0000, 0.0000, 0.0000, 0.0000, 1.1557, 0.9952, -1.4921, 0.0049, 0.0037, -0.0303, 943, 0, 1.0000, 1.0000, -1.5000, 0.0000
14.6320, 0.0000, 0.0000, 0.0000, 0.0000, 0.0000, 0.0000, 1.1569, 0.9962, -1.4931, 0.0048, 0.0051, -0.0310, 944, 0, 1.0000, 1.0000, -1.5000, 0.0000
14.6520, 0.0000, 0.0000, 0.0000, 0.0000, 0.0000, 0.0000, 1.1583, 0.9973, -1.4943, 0.0047, 0.0053, -0.0312, 945, 0, 1.0000, 1.0000, -1.5000, 0.0000
14.6720, 0.0000, 0.0000, 0.0000, 0.0000, 0.0000, 0.0000, 1.1597, 0.9985, -1.4954, 0.0047, 0.0056, -0.0308, 946, 0, 1.0000, 1.0000, -1.5000, 0.0000
14.6920, 0.0000, 0.0000, 0.0000, 0.0000, 0.0000, 0.0000, 1.1609, 0.9996, -1.4964, 0.0051, 0.0059, -0.0314, 947, 0, 1.0000, 1.0000, -1.5000, 0.0000
14.7120, 0.0000, 0.0000, 0.0000, 0.0000, 0.0000, 0.0000, 1.1622, 1.0008, -1.4975, 0.0048, 0.0061, -0.0314, 948, 0, 1.0000, 1.0000, -1.5000, 0.0000
14.7320, 0.0000, 0.0000, 0.0000, 0.0000, 0.0000, 0.0000, 1.1635, 1.0020, -1.4984, 0.0051, 0.0063, -0.0310, 949, 0, 1.0000, 1.0000, -1.5000, 0.0000
14.7520, 0.0000, 0.0000, 0.0000, 0.0000, 0.0000, 0.0000, 1.1649, 1.0032, -1.4995, 0.0048, 0.0069, -0.0318, 950, 0, 1.0000, 1.0000, -1.5000, 0.0000
14.7720, 0.0000, 0.0000, 0.0000, 0.0000, 0.0000, 0.0000, 1.1656, 1.0038, -1.4999, 0.0057, 0.0113, -0.0340, 951, 0, 1.0000, 1.0000, -1.5000, 0.0000
14.7920, 0.0000, 0.0000, 0.0000, 0.0000, 0.0000, 0.0000, 1.1669, 1.0050, -1.5007, 0.0064, 0.0135, -0.0356, 952, 0, 1.0000, 1.0000, -1.5000, 0.0000
14.8120, 0.0000, 0.0000, 0.0000, 0.0000, 0.0000, 0.0000, 1.1681, 1.0062, -1.5013, 0.0059, 0.0147, -0.0359, 953, 0, 1.0000, 1.0000, -1.5000, 0.0000
14.8320, 0.0000, 0.0000, 0.0000, 0.0000, 0.0000, 0.0000, 1.1700, 1.0080, -1.5023, 0.0052, 0.0135, -0.0356, 954, 0, 1.0000, 1.0000, -1.5000, 0.0000
14.8520, 0.0000, 0.0000, 0.0000, 0.0000, 0.0000, 0.0000, 1.1713, 1.0094, -1.5029, 0.0051, 0.0146, -0.0351, 955, 0, 1.0000, 1.0000, -1.5000, 0.0000
14.8720, 0.0000, 0.0000, 0.0000, 0.0000, 0.0000, 0.0000, 1.1726, 1.0105, -1.5034, 0.0049, 0.0149, -0.0342, 956, 0, 1.0000, 1.0000, -1.5000, 0.0000
14.8920, 0.0000, 0.0000, 0.0000, 0.0000, 0.0000, 0.0000, 1.1739, 1.0119, -1.5039, 0.0048, 0.0145, -0.0345, 957, 0, 1.0000, 1.0000, -1.5000, 0.0000
14.9120, 0.0000, 0.0000, 0.0000, 0.0000, 0.0000, 0.0000, 1.1752, 1.0130, -1.5044, 0.0049, 0.0160, -0.0368, 958, 0, 1.0000, 1.0000, -1.5000, 0.0000
14.9320, 0.0000, 0.0000, 0.0000, 0.0000, 0.0000, 0.0000, 1.1770, 1.0146, -1.5043, 0.0042, 0.0143, -0.0376, 959, 0, 1.0000, 1.0000, -1.5000, 0.0000
14.9520, 0.0000, 0.0000, 0.0000, 0.0000, 0.0000, 0.0000, 1.1774, 1.0155, -1.5049, 0.0047, 0.0194, -0.0401, 960, 0, 1.0000, 1.0000, -1.5000, 0.0000
14.9720, 0.0000, 0.0000, 0.0000, 0.0000, 0.0000, 0.0000, 1.1777, 1.0160, -1.5048, 0.0060, 0.0241, -0.0414, 961, 0, 1.0000, 1.0000, -1.5000, 0.0000
14.9920, 0.0000, 0.0000, 0.0000, 0.0000, 0.0000, 0.0000, 1.1787, 1.0173, -1.5048, 0.0061, 0.0252, -0.0431, 962, 0, 1.0000, 1.0000, -1.5000, 0.0000
15.0120, 0.0000, 0.0000, 0.0000, 0.0000, 0.0000, 0.0000, 1.1805, 1.0189, -1.5054, 0.0047, 0.0235, -0.0448, 963, 0, 1.0000, 1.0000, -1.5000, 0.0000
15.0320, 0.0000, 0.0000, 0.0000, 0.0000, 0.0000, 0.0000, 1.1811, 1.0198, -1.5054, 0.0050, 0.0255, -0.0460, 964, 0, 0.9960, 0.9960, -1.4980, 0.0000
15.0520, 0.0000, 0.0000, 0.0000, 0.0000, 0.0000, 0.0000, 1.1819, 1.0209, -1.5054, 0.0048, 0.0263, -0.0471, 965, 0, 0.9893, 0.9893, -1.4947, 0.0000
15.0720, 0.0000, 0.0000, 0.0000, 0.0000, 0.0000, 0.0000, 1.1829, 1.0220, -1.5057, 0.0050, 0.0253, -0.0453, 966, 0, 0.9827, 0.9827, -1.4913, 0.0000
15.0920, 0.0000, 0.0000, 0.0000, 0.0000, 0.0000, 0.0000, 1.1838, 1.0232, -1.5058, 0.0045, 0.0233, -0.0446, 967, 0, 0.9760, 0.9760, -1.4880, 0.0000
15.1120, 0.0000, 0.0000, 0.0000, 0.0000, 0.0000, 0.0000, 1.1844, 1.0242, -1.5061, 0.0046, 0.0233, -0.0441, 968, 0, 0.9693, 0.9693, -1.4847, 0.0000
15.1320, 0.0000, 0.0000, 0.0000, 0.0000, 0.0000, 0.0000, 1.1850, 1.0250, -1.5063, 0.0042, 0.0246, -0.0462, 969, 0, 0.9627, 0.9627, -1.4813, 0.0000
15.1520, 0.0000, 0.0000, 0.0000, 0.0000, 0.0000, 0.0000, 1.1855, 1.0258, -1.5063, 0.0047, 0.0267, -0.0482, 970, 0, 0.9560, 0.9560, -1.4780, 0.0000
15.1720, 0.0000, 0.0000, 0.0000, 0.0000, 0.0000, 0.0000, 1.1859, 1.0266, -1.5066, 0.0044, 0.0283, -0.0501, 971, 0, 0.9493, 0.9493, -1.4747, 0.0000
15.1920, 0.0000, 0.0000, 0.0000, 0.0000, 0.0000, 0.0000, 1.1861, 1.0273, -1.5065, 0.0044, 0.0293, -0.0514, 972, 0, 0.9427, 0.9427, -1.4713, 0.0000
15.2120, 0.0000, 0.0000, 0.0000, 0.0000, 0.0000, 0.0000, 1.1864, 1.0281, -1.5068, 0.0045, 0.0289, -0.0511, 973, 0, 0.9360, 0.9360, -1.4680, 0.0000
15.2320, 0.0000, 0.0000, 0.0000, 0.0000, 0.0000, 0.0000, 1.1861, 1.0282, -1.5066, 0.0051, 0.0309, -0.0509, 974, 0, 0.9293, 0.9293, -1.4647, 0.0000
15.2520, 0.0000, 0.0000, 0.0000, 0.0000, 0.0000, 0.0000, 1.1862, 1.0288, -1.5067, 0.0050, 0.0315, -0.0527, 975, 0, 0.9227, 0.9227, -1.4613, 0.0000
15.2720, 0.0000, 0.0000, 0.0000, 0.0000, 0.0000, 0.0000, 1.1864, 1.0292, -1.5070, 0.0056, 0.0327, -0.0543, 976, 0, 0.9160, 0.9160, -1.4580, 0.0000
15.2920, 0.0000, 0.0000, 0.0000, 0.0000, 0.0000, 0.0000, 1.1864, 1.0298, -1.5070, 0.0056, 0.0334, -0.0558, 977, 0, 0.9093, 0.9093, -1.4547, 0.0000
15.3120, 0.0000, 0.0000, 0.0000, 0.0000, 0.0000, 0.0000, 1.1863, 1.0301, -1.5072, 0.0053, 0.0342, -0.0570, 978, 0, 0.9027, 0.9027, -1.4513, 0.0000
15.3320, 0.0000, 0.0000, 0.0000, 0.0000, 0.0000, 0.0000, 1.1861, 1.0304, -1.5073, 0.0055, 0.0340, -0.0582, 979, 0, 0.8960, 0.8960, -1.4480, 0.0000
15.3520, 0.0000, 0.0000, 0.0000, 0.0000, 0.0000, 0.0000, 1.1865, 1.0310, -1.5076, 0.0046, 0.0317, -0.0584, 980, 0, 0.8893, 0.8893, -1.4447, 0.0000
15.3720, 0.0000, 0.0000, 0.0000, 0.0000, 0.0000, 0.0000, 1.1854, 1.0308, -1.5073, 0.0053, 0.0352, -0.0598, 981, 0, 0.8827, 0.8827, -1.4413, 0.0000
15.3920, 0.0000, 0.0000, 0.0000, 0.0000, 0.0000, 0.0000, 1.1855, 1.0313, -1.5076, 0.0044, 0.0344, -0.0618, 982, 0, 0.8760, 0.8760, -1.4380, 0.0000
15.4120, 0.0000, 0.0000, 0.0000, 0.0000, 0.0000, 0.0000, 1.1844, 1.0307, -1.5072, 0.0053, 0.0371, -0.0623, 983, 0, 0.8693, 0.8693, -1.4347, 0.0000
15.4320, 0.0000, 0.0000, 0.0000, 0.0000, 0.0000, 0.0000, 1.1839, 1.0305, -1.5071, 0.0052, 0.0373, -0.0637, 984, 0, 0.8627, 0.8627, -1.4313, 0.0000
15.4520, 0.0000, 0.0000, 0.0000, 0.0000, 0.0000, 0.0000, 1.1838, 1.0306, -1.5071, 0.0048, 0.0359, -0.0660, 985, 0, 0.8560, 0.8560, -1.4280, 0.0000
15.4720, 0.0000, 0.0000, 0.0000, 0.0000, 0.0000, 0.0000, 1.1838, 1.0306, -1.5065, 0.0038, 0.0348, -0.0663, 986, 0, 0.8493, 0.8493, -1.4247, 0.0000
15.4920, 0.0000, 0.0000, 0.0000, 0.0000, 0.0000, 0.0000, 1.1830, 1.0301, -1.5061, 0.0037, 0.0353, -0.0668, 987, 0, 0.8427, 0.8427, -1.4213, 0.0000
15.5120, 0.0000, 0.0000, 0.0000, 0.0000, 0.0000, 0.0000, 1.1812, 1.0291, -1.5062, 0.0047, 0.0383, -0.0687, 988, 0, 0.8360, 0.8360, -1.4180, 0.0000
15.5320, 0.0000, 0.0000, 0.0000, 0.0000, 0.0000, 0.0000, 1.1800, 1.0284, -1.5058, 0.0043, 0.0384, -0.0693, 989, 0, 0.8293, 0.8293, -1.4147, 0.0000
15.5520, 0.0000, 0.0000, 0.0000, 0.0000, 0.0000, 0.0000, 1.1790, 1.0275, -1.5053, 0.0045, 0.0392, -0.0693, 990, 0, 0.8227, 0.8227, -1.4113, 0.0000
15.5720, 0.0000, 0.0000, 0.0000, 0.0000, 0.0000, 0.0000, 1.1776, 1.0267, -1.5047, 0.0048, 0.0403, -0.0705, 991, 0, 0.8160, 0.8160, -1.4080, 0.0000
15.5920, 0.0000, 0.0000, 0.0000, 0.0000, 0.0000, 0.0000, 1.1762, 1.0254, -1.5040, 0.0047, 0.0429, -0.0715, 992, 0, 0.8093, 0.8093, -1.4047, 0.0000
15.6120, 0.0000, 0.0000, 0.0000, 0.0000, 0.0000, 0.0000, 1.1740, 1.0238, -1.5029, 0.0061, 0.0466, -0.0716, 993, 0, 0.8027, 0.8027, -1.4013, 0.0000
15.6320, 0.0000, 0.0000, 0.0000, 0.0000, 0.0000, 0.0000, 1.1732, 1.0230, -1.5028, 0.0050, 0.0429, -0.0722, 994, 0, 0.7960, 0.7960, -1.3980, 0.0000
15.6520, 0.0000, 0.0000, 0.0000, 0.0000, 0.0000, 0.0000, 1.1727, 1.0219, -1.5022, 0.0027, 0.0411, -0.0727, 995, 0, 0.7893, 0.7893, -1.3947, 0.0000
15.6720, 0.0000, 0.0000, 0.0000, 0.0000, 0.0000, 0.0000, 1.1705, 1.0203, -1.5014, 0.0036, 0.0417, -0.0736, 996, 0, 0.7827, 0.7827, -1.3913, 0.0000
15.6920, 0.0000, 0.0000, 0.0000, 0.0000, 0.0000, 0.0000, 1.1674, 1.0177, -1.4999, 0.0059, 0.0440, -0.0719, 997, 0, 0.7760, 0.7760, -1.3880, 0.0000
15.7120, 0.0000, 0.0000, 0.0000, 0.0000, 0.0000, 0.0000, 1.1660, 1.0164, -1.4993, 0.0049, 0.0409, -0.0720, 998, 0, 0.7693, 0.7693, -1.3847, 0.0000
15.7320, 0.0000, 0.0000, 0.0000, 0.0000, 0.0000, 0.0000, 1.1641, 1.0145, -1.4984, 0.0047, 0.0392, -0.0700, 999, 0, 0.7627, 0.7627, -1.3813, 0.0000
15.7520, 0.0000, 0.0000, 0.0000, 0.0000, 0.0000, 0.0000, 1.1619, 1.0124, -1.4972, 0.0046, 0.0393, -0.0687, 1000, 0, 0.7560, 0.7560, -1.3780, 0.0000
15.7720, 0.0000, 0.0000, 0.0000, 0.0000, 0.0000, 0.0000, 1.1589, 1.0099, -1.4956, 0.0053, 0.0417, -0.0688, 1001, 0, 0.7493, 0.7493, -1.3747, 0.0000
15.7920, 0.0000, 0.0000, 0.0000, 0.0000, 0.0000, 0.0000, 1.1568, 1.0077, -1.4948, 0.0052, 0.0388, -0.0666, 1002, 0, 0.7427, 0.7427, -1.3713, 0.0000
15.8120, 0.0000, 0.0000, 0.0000, 0.0000, 0.0000, 0.0000, 1.1552, 1.0057, -1.4940, 0.0038, 0.0330, -0.0644, 1003, 0, 0.7360, 0.7360, -1.3680, 0.0000
15.8320, 0.0000, 0.0000, 0.0000, 0.0000, 0.0000, 0.0000, 1.1528, 1.0033, -1.4928, 0.0040, 0.0330, -0.0649, 1004, 0, 0.7293, 0.7293, -1.3647, 0.0000
15.8520, 0.0000, 0.0000, 0.0000, 0.0000, 0.0000, 0.0000, 1.1502, 1.0006, -1.4915, 0.0042, 0.0348, -0.0657, 1005, 0, 0.7227, 0.7227, -1.3613, 0.0000
15.8720, 0.0000, 0.0000, 0.0000, 0.0000, 0.0000, 0.0000, 1.1475, 0.9980, -1.4900, 0.0046, 0.0347, -0.0644, 1006, 0, 0.7160, 0.7160, -1.3580, 0.0000
15.8920, 0.0000, 0.0000, 0.0000, 0.0000, 0.0000, 0.0000, 1.1450, 0.9954, -1.4888, 0.0041, 0.0332, -0.0620, 1007, 0, 0.7093, 0.7093, -1.3547, 0.0000
15.9120, 0.0000, 0.0000, 0.0000, 0.0000, 0.0000, 0.0000, 1.1423, 0.9925, -1.4873, 0.0039, 0.0320, -0.0595, 1008, 0, 0.7027, 0.7027, -1.3513, 0.0000
15.9320, 0.0000, 0.0000, 0.0000, 0.0000, 0.0000, 0.0000, 1.1397, 0.9897, -1.4858, 0.0040, 0.0317, -0.0597, 1009, 0, 0.6960, 0.6960, -1.3480, 0.0000
15.9520, 0.0000, 0.0000, 0.0000, 0.0000, 0.0000, 0.0000, 1.1366, 0.9866, -1.4843, 0.0038, 0.0343, -0.0620, 1010, 0, 0.6893, 0.6893, -1.3447, 0.0000
15.9720, 0.0000, 0.0000, 0.0000, 0.0000, 0.0000, 0.0000, 1.1337, 0.9834, -1.4825, 0.0044, 0.0371, -0.0649, 1011, 0, 0.6827, 0.6827, -1.3413, 0.0000
15.9920, 0.0000, 0.0000, 0.0000, 0.0000, 0.0000, 0.0000, 1.1307, 0.9800, -1.4806, 0.0046, 0.0401, -0.0674, 1012, 0, 0.6760, 0.6760, -1.3380, 0.0000
16.0120, 0.0000, 0.0000, 0.0000, 0.0000, 0.0000, 0.0000, 1.1275, 0.9767, -1.4786, 0.0044, 0.0420, -0.0696, 1013, 0, 0.6693, 0.6693, -1.3347, 0.0000
16.0320, 0.0000, 0.0000, 0.0000, 0.0000, 0.0000, 0.0000, 1.1243, 0.9733, -1.4763, 0.0048, 0.0438, -0.0699, 1014, 0, 0.6627, 0.6627, -1.3313, 0.0000
16.0520, 0.0000, 0.0000, 0.0000, 0.0000, 0.0000, 0.0000, 1.1213, 0.9698, -1.4743, 0.0048, 0.0456, -0.0707, 1015, 0, 0.6560, 0.6560, -1.3280, 0.0000
16.0720, 0.0000, 0.0000, 0.0000, 0.0000, 0.0000, 0.0000, 1.1178, 0.9662, -1.4719, 0.0049, 0.0462, -0.0717, 1016, 0, 0.6493, 0.6493, -1.3247, 0.0000
16.0920, 0.0000, 0.0000, 0.0000, 0.0000, 0.0000, 0.0000, 1.1145, 0.9626, -1.4697, 0.0051, 0.0452, -0.0692, 1017, 0, 0.6427, 0.6427, -1.3213, 0.0000
16.1120, 0.0000, 0.0000, 0.0000, 0.0000, 0.0000, 0.0000, 1.1111, 0.9588, -1.4674, 0.0048, 0.0461, -0.0694, 1018, 0, 0.6360, 0.6360, -1.3180, 0.0000
16.1320, 0.0000, 0.0000, 0.0000, 0.0000, 0.0000, 0.0000, 1.1074, 0.9549, -1.4651, 0.0047, 0.0473, -0.0708, 1019, 0, 0.6293, 0.6293, -1.3147, 0.0000
16.1520, 0.0000, 0.0000, 0.0000, 0.0000, 0.0000, 0.0000, 1.1034, 0.9507, -1.4623, 0.0047, 0.0487, -0.0715, 1020, 0, 0.6227, 0.6227, -1.3113, 0.0000
16.1720, 0.0000, 0.0000, 0.0000, 0.0000, 0.0000, 0.0000, 1.0996, 0.9465, -1.4598, 0.0046, 0.0509, -0.0731, 1021, 0, 0.6160, 0.6160, -1.3080, 0.0000
