time (s), accel_x (m/s^2), accel_y (m/s^2), accel_z (m/s^2), gyro_x (rad/s), gyro_y (rad/s), gyro_z (rad/s), x (m), y (m), z (m), yaw (rad), pitch (rad), roll (rad), mocap_counter, counter, desired x, desired y, desired z, desired yaw
0.0000, -0.2942, -0.0883, -9.6497, -0.0065, 0.0051, 0.0070, -0.0123, -0.0103, -0.0963, 0.0606, 0.1072, -0.0966, 303, 146608, 0.0000, 0.0000, 0.0000, 0.0000
0.0200, -0.2942, -0.0883, -9.6497, -0.0065, 0.0051, 0.0070, -0.0124, -0.0104, -0.0963, 0.0608, 0.1070, -0.0967, 304, 146608, 0.0000, 0.0000, 0.0000, 0.0000
0.0400, -0.2942, -0.0883, -9.6497, -0.0065, 0.0051, 0.0070, -0.0125, -0.0104, -0.0963, 0.0608, 0.1071, -0.0967, 305, 146608, 0.0000, 0.0000, 0.0000, 0.0000
0.0600, -0.2942, -0.0883, -9.6497, -0.0065, 0.0051, 0.0070, -0.0124, -0.0103, -0.0964, 0.0608, 0.1072, -0.0969, 306, 146608, 0.0000, 0.0000, 0.0000, 0.0000
0.0800, -0.2942, -0.0883, -9.6497, -0.0065, 0.0051, 0.0070, -0.0124, -0.0104, -0.0962, 0.0608, 0.1070, -0.0967, 307, 146608, 0.0000, 0.0000, 0.0000, 0.0000
0.1000, -0.2942, -0.0883, -9.6497, -0.0065, 0.0051, 0.0070, -0.0124, -0.0104, -0.0963, 0.0607, 0.1070, -0.0967, 308, 146608, 0.0000, 0.0000, 0.0000, 0.0000
0.1200, -0.2942, -0.0883, -9.6497, -0.0065, 0.0051, 0.0070, -0.0125, -0.0104, -0.0963, 0.0609, 0.1071, -0.0967, 309, 146608, 0.0000, 0.0000, 0.0000, 0.0000
0.1400, -0.2942, -0.0883, -9.6497, -0.0065, 0.0051, 0.0070, -0.0124, -0.0104, -0.0963, 0.0608, 0.1070, -0.0967, 310, 146608, 0.0000, 0.0000, 0.0000, 0.0000
0.1600, -0.2942, -0.0883, -9.6497, -0.0065, 0.0051, 0.0070, -0.0124, -0.0104, -0.0963, 0.0607, 0.1072, -0.0966, 311, 146608, 0.0000, 0.0000, 0.0000, 0.0000
0.1800, -0.2942, -0.0883, -9.6497, -0.0065, 0.0051, 0.0070, -0.0125, -0.0104, -0.0963, 0.0609, 0.1072, -0.0967, 312, 146608, 0.0000, 0.0000, 0.0000, 0.0000
0.2000, -0.2942, -0.0883, -9.6497, -0.0065, 0.0051, 0.0070, -0.0123, -0.0103, -0.0964, 0.0606, 0.1072, -0.0963, 313, 146608, 0.0000, 0.0000, 0.0000, 0.0000
0.2200, -0.2942, -0.0883, -9.6497, -0.0065, 0.0051, 0.0070, -0.0125, -0.0104, -0.0962, 0.0608, 0.1070, -0.0966, 314, 146608, 0.0000, 0.0000, 0.0000, 0.0000
0.2400, -0.2942, -0.0883, -9.6497, -0.0065, 0.0051, 0.0070, -0.0124, -0.0104, -0.0963, 0.0608, 0.1070, -0.0965, 315, 146608, 0.0000, 0.0000, 0.0000, 0.0000
0.2600, -0.2942, -0.0883, -9.6497, -0.0065, 0.0051, 0.0070, -0.0125, -0.0104, -0.0963, 0.0608, 0.1070, -0.0968, 316, 146608, 0.0000, 0.0000, 0.0000, 0.0000
0.2800, -0.2942, -0.0883, -9.6497, -0.0065, 0.0051, 0.0070, -0.0125, -0.0103, -0.0963, 0.0607, 0.1070, -0.0966, 317, 146608, 0.0000, 0.0000, 0.0000, 0.0000
0.3000, -0.2942, -0.0883, -9.6497, -0.0065, 0.0051, 0.0070, -0.0124, -0.0104, -0.0963, 0.0606, 0.1069, -0.0965, 318, 146608, 0.0000, 0.0000, 0.0000, 0.0000
0.3200, -0.2942, -0.0883, -9.6497, -0.0065, 0.0051, 0.0070, -0.0125, -0.0104, -0.0963, 0.0608, 0.1071, -0.0968, 319, 146608, 0.0000, 0.0000, 0.0000, 0.0000
0.3400, -0.2942, -0.0883, -9.6497, -0.0065, 0.0051, 0.0070, -0.0124, -0.0104, -0.0964, 0.0608, 0.1069, -0.0965, 320, 146608, 0.0000, 0.0000, 0.0000, 0.0000
0.3600, -0.2942, -0.0883, -9.6497, -0.0065, 0.0051, 0.0070, -0.0125, -0.0103, -0.0962, 0.0607, 0.1070, -0.0966, 321, 146608, 0.0000, 0.0000, 0.0000, 0.0000
0.3800, -0.2942, -0.0883, -9.6497, -0.0065, 0.0051, 0.0070, -0.0125, -0.0103, -0.0963, 0.0607, 0.1070, -0.0965, 322, 146608, 0.0000, 0.0000, 0.0000, 0.0000
0.4000, -0.2942, -0.0883, -9.6497, -0.0065, 0.0051, 0.0070, -0.0124, -0.0104, -0.0963, 0.0607, 0.1068, -0.0962, 323, 146608, 0.0000, 0.0000, 0.0000, 0.0000
0.4200, -0.2942, -0.0883, -9.6497, -0.0065, 0.0051, 0.0070, -0.0125, -0.0103, -0.0963, 0.0608, 0.1071, -0.0967, 324, 146608, 0.0000, 0.0000, 0.0000, 0.0000
0.4400, -0.2942, -0.0883, -9.6497, -0.0065, 0.0051, 0.0070, -0.0125, -0.0103, -0.0964, 0.0607, 0.1070, -0.0967, 325, 146608, 0.0000, 0.0000, 0.0000, 0.0000
0.4600, -0.2942, -0.0883, -9.6497, -0.0065, 0.0051, 0.0070, -0.0125, -0.0104, -0.0962, 0.0607, 0.1069, -0.0965, 326, 146608, 0.0000, 0.0000, 0.0000, 0.0000
0.4800, -0.2942, -0.0883, -9.6497, -0.0065, 0.0051, 0.0070, -0.0125, -0.0104, -0.0963, 0.0607, 0.1070, -0.0966, 327, 146608, 0.0000, 0.0000, 0.0000, 0.0000
0.5000, -0.2942, -0.0883, -9.6497, -0.0065, 0.0051, 0.0070, -0.0125, -0.0104, -0.0963, 0.0607, 0.1071, -0.0968, 328, 146608, 0.0000, 0.0000, 0.0000, 0.0000
0.5200, -0.2942, -0.0883, -9.6497, -0.0065, 0.0051, 0.0070, -0.0125, -0.0103, -0.0963, 0.0607, 0.1069, -0.0966, 329, 146608, 0.0000, 0.0000, 0.0000, 0.0000
0.5400, -0.2942, -0.0883, -9.6497, -0.0065, 0.0051, 0.0070, -0.0125, -0.0104, -0.0963, 0.0608, 0.1069, -0.0965, 330, 146608, 0.0000, 0.0000, 0.0000, 0.0000
0.5600, -0.2942, -0.0883, -9.6497, -0.0065, 0.0051, 0.0070, -0.0125, -0.0104, -0.0962, 0.0607, 0.1071, -0.0966, 331, 146608, 0.0000, 0.0000, 0.0000, 0.0000
0.5800, -0.2942, -0.0883, -9.6497, -0.0065, 0.0051, 0.0070, -0.0124, -0.0103, -0.0963, 0.0608, 0.1070, -0.0964, 332, 146608, 0.0000, 0.0000, 0.0000, 0.0000
0.6000, -0.2942, -0.0883, -9.6497, -0.0065, 0.0051, 0.0070, -0.0125, -0.0104, -0.0962, 0.0608, 0.1069, -0.0963, 333, 146608, 0.0000, 0.0000, 0.0000, 0.0000
0.6200, -0.2942, -0.0883, -9.6497, -0.0065, 0.0051, 0.0070, -0.0124, -0.0104, -0.0963, 0.0607, 0.1071, -0.0965, 334, 146608, 0.0000, 0.0000, 0.0000, 0.0000
0.6400, -0.2942, -0.0883, -9.6497, -0.0065, 0.0051, 0.0070, -0.0124, -0.0104, -0.0963, 0.0608, 0.1072, -0.0967, 335, 146608, 0.0000, 0.0000, 0.0000, 0.0000
0.6600, -0.2942, -0.0883, -9.6497, -0.0065, 0.0051, 0.0070, -0.0125, -0.0103, -0.0962, 0.0608, 0.1069, -0.0964, 336, 146608, 0.0000, 0.0000, 0.0000, 0.0000
0.6800, -0.2942, -0.0883, -9.6497, -0.0065, 0.0051, 0.0070, -0.0124, -0.0104, -0.0964, 0.0607, 0.1071, -0.0965, 337, 146608, 0.0000, 0.0000, 0.0000, 0.0000
0.7000, -0.2942, -0.0883, -9.6497, -0.0065, 0.0051, 0.0070, -0.0125, -0.0104, -0.0962, 0.0607, 0.1071, -0.0966, 338, 146608, 0.0000, 0.0000, 0.0000, 0.0000
0.7200, -0.2942, -0.0883, -9.6497, -0.0065, 0.0051, 0.0070, -0.0124, -0.0104, -0.0963, 0.0607, 0.1071, -0.0964, 339, 146608, 0.0000, 0.0000, 0.0000, 0.0000
0.7400, -0.2942, -0.0883, -9.6497, -0.0065, 0.0051, 0.0070, -0.0125, -0.0103, -0.0963, 0.0608, 0.1071, -0.0966, 340, 146608, 0.0000, 0.0000, 0.0000, 0.0000
0.7600, -0.2942, -0.0883, -9.6497, -0.0065, 0.0051, 0.0070, -0.0124, -0.0104, -0.0963, 0.0608, 0.1071, -0.0966, 341, 146608, 0.0000, 0.0000, 0.0000, 0.0000
0.7800, -0.2942, -0.0883, -9.6497, -0.0065, 0.0051, 0.0070, -0.0124, -0.0104, -0.0963, 0.0607, 0.1070, -0.0965, 342, 146608, 0.0000, 0.0000, 0.0000, 0.0000
0.8000, -0.2942, -0.0883, -9.6497, -0.0065, 0.0051, 0.0070, -0.0125, -0.0103, -0.0963, 0.0608, 0.1071, -0.0965, 343, 146608, 0.0000, 0.0000, 0.0000, 0.0000
0.8200, -0.2942, -0.0883, -9.6497, -0.0065, 0.0051, 0.0070, -0.0124, -0.0104, -0.0963, 0.0608, 0.1070, -0.0963, 344, 146608, 0.0000, 0.0000, 0.0000, 0.0000
0.8400, -0.2942, -0.0883, -9.6497, -0.0065, 0.0051, 0.0070, -0.0125, -0.0103, -0.0963, 0.0608, 0.1071, -0.0965, 345, 146608, 0.0000, 0.0000, 0.0000, 0.0000
0.8600, -0.2942, -0.0883, -9.6497, -0.0065, 0.0051, 0.0070, -0.0124, -0.0104, -0.0963, 0.0607, 0.1069, -0.0962, 346, 146608, 0.0000, 0.0000, 0.0000, 0.0000
0.8800, -0.2942, -0.0883, -9.6497, -0.0065, 0.0051, 0.0070, -0.0125, -0.0104, -0.0963, 0.0608, 0.1070, -0.0964, 347, 146608, 0.0000, 0.0000, 0.0000, 0.0000
0.9000, -0.2942, -0.0883, -9.6497, -0.0065, 0.0051, 0.0070, -0.0125, -0.0103, -0.0963, 0.0607, 0.1071, -0.0965, 348, 146608, 0.0000, 0.0000, 0.0000, 0.0000
0.9200, -0.2942, -0.0883, -9.6497, -0.0065, 0.0051, 0.0070, -0.0124, -0.0104, -0.0963, 0.0607, 0.1069, -0.0962, 349, 146608, 0.0000, 0.0000, 0.0000, 0.0000
0.9400, -0.2942, -0.0883, -9.6497, -0.0065, 0.0051, 0.0070, -0.0125, -0.0104, -0.0962, 0.0608, 0.1070, -0.0966, 350, 146608, 0.0000, 0.0000, 0.0000, 0.0000
0.9600, -0.2942, -0.0883, -9.6497, -0.0065, 0.0051, 0.0070, -0.0124, -0.0104, -0.0963, 0.0607, 0.1070, -0.0964, 351, 146608, 0.0000, 0.0000, 0.0000, 0.0000
0.9800, -0.2942, -0.0883, -9.6497, -0.0065, 0.0051, 0.0070, -0.0125, -0.0104, -0.0963, 0.0607, 0.1069, -0.0965, 352, 146608, 0.0000, 0.0000, 0.0000, 0.0000
1.0000, -0.2942, -0.0883, -9.6497, -0.0065, 0.0051, 0.0070, -0.0125, -0.0104, -0.0963, 0.0608, 0.1071, -0.0966, 353, 146608, 0.0000, 0.0000, 0.0000, 0.0000
1.0200, -0.2942, -0.0883, -9.6497, -0.0065, 0.0051, 0.0070, -0.0124, -0.0104, -0.0963, 0.0608, 0.1069, -0.0964, 354, 146608, 0.0000, 0.0000, 0.0000, 0.0000
1.0400, -0.2942, -0.0883, -9.6497, -0.0065, 0.0051, 0.0070, -0.0125, -0.0103, -0.0963, 0.0608, 0.1071, -0.0966, 355, 146608, 0.0000, 0.0000, 0.0000, 0.0000
1.0600, -0.2942, -0.0883, -9.6497, -0.0065, 0.0051, 0.0070, -0.0124, -0.0104, -0.0963, 0.0607, 0.1069, -0.0963, 356, 146608, 0.0000, 0.0000, 0.0000, 0.0000
1.0800, -0.2942, -0.0883, -9.6497, -0.0065, 0.0051, 0.0070, -0.0125, -0.0104, -0.0963, 0.0607, 0.1070, -0.0965, 357, 146608, 0.0000, 0.0000, 0.0000, 0.0000
1.1000, -0.2942, -0.0883, -9.6497, -0.0065, 0.0051, 0.0070, -0.0125, -0.0103, -0.0964, 0.0608, 0.1071, -0.0965, 358, 146608, 0.0000, 0.0000, 0.0000, 0.0000
1.1200, -0.2942, -0.0883, -9.6497, -0.0065, 0.0051, 0.0070, -0.0124, -0.0104, -0.0963, 0.0607, 0.1070, -0.0965, 359, 146608, 0.0000, 0.0000, 0.0000, 0.0000
1.1400, -0.2942, -0.0883, -9.6497, -0.0065, 0.0051, 0.0070, -0.0125, -0.0104, -0.0963, 0.0608, 0.1071, -0.0966, 360, 146608, 0.0000, 0.0000, 0.0000, 0.0000
1.1600, -0.2942, -0.0883, -9.6497, -0.0065, 0.0051, 0.0070, -0.0124, -0.0104, -0.0963, 0.0608, 0.1070, -0.0965, 361, 146608, 0.0000, 0.0000, 0.0000, 0.0000
1.1800, -0.2942, -0.0883, -9.6497, -0.0065, 0.0051, 0.0070, -0.0125, -0.0104, -0.0962, 0.0608, 0.1070, -0.0966, 362, 146608, 0.0000, 0.0000, 0.0000, 0.0000
1.2000, -0.2942, -0.0883, -9.6497, -0.0065, 0.0051, 0.0070, -0.0124, -0.0104, -0.0963, 0.0608, 0.1071, -0.0965, 363, 146608, 0.0000, 0.0000, 0.0000, 0.0000
1.2200, -0.2942, -0.0883, -9.6497, -0.0065, 0.0051, 0.0070, -0.0124, -0.0104, -0.0963, 0.0603, 0.1068, -0.0964, 364, 146608, 0.0000, 0.0000, 0.0000, 0.0000
1.2400, -0.2942, -0.0883, -9.6497, -0.0065, 0.0051, 0.0070, -0.0124, -0.0104, -0.0962, 0.0606, 0.1070, -0.0962, 365, 146608, 0.0000, 0.0000, 0.0000, 0.0000
1.2630, -0.2942, -0.0883, -9.6497, -0.0065, 0.0051, 0.0070, -0.0124, -0.0104, -0.0964, 0.0621, 0.1072, -0.0968, 366, 146608, 0.0000, 0.0000, 0.0000, 0.0000
1.2830, -0.2942, -0.0883, -9.6497, -0.0065, 0.0051, 0.0070, -0.0126, -0.0104, -0.0963, 0.0619, 0.1072, -0.0967, 367, 146608, 0.0000, 0.0000, 0.0000, 0.0000
1.3030, -0.2942, -0.0883, -9.6497, -0.0065, 0.0051, 0.0070, -0.0125, -0.0106, -0.0964, 0.0612, 0.1075, -0.0957, 368, 146608, 0.0000, 0.0000, 0.0000, 0.0000
1.3230, -0.2942, -0.0883, -9.6497, -0.0065, 0.0051, 0.0070, -0.0124, -0.0104, -0.0962, 0.0613, 0.1069, -0.0971, 369, 146608, 0.0000, 0.0000, 0.0000, 0.0000
1.3370, -0.2942, -0.0883, -9.6497, -0.0065, 0.0051, 0.0070, -0.0125, -0.0104, -0.0965, 0.0613, 0.1069, -0.0963, 370, 146608, 0.0000, 0.0000, 0.0000, 0.0000
1.3660, -0.2942, -0.0883, -9.6497, -0.0065, 0.0051, 0.0070, -0.0125, -0.0104, -0.0964, 0.0616, 0.1071, -0.0966, 371, 146608, 0.0000, 0.0000, 0.0000, 0.0000
1.3760, -0.2942, -0.0883, -9.6497, -0.0065, 0.0051, 0.0070, -0.0125, -0.0105, -0.0964, 0.0619, 0.1068, -0.0966, 372, 146608, 0.0000, 0.0000, 0.0000, 0.0000
1.3960, -0.2942, -0.0883, -9.6497, -0.0065, 0.0051, 0.0070, -0.0125, -0.0103, -0.0965, 0.0617, 0.1070, -0.0966, 373, 146608, 0.0000, 0.0000, 0.0000, 0.0000
1.4160, -0.2942, -0.0883, -9.6497, -0.0065, 0.0051, 0.0070, -0.0124, -0.0104, -0.0963, 0.0616, 0.1066, -0.0971, 374, 146608, 0.0000, 0.0000, 0.0000, 0.0000
1.4360, -0.2942, -0.0883, -9.6497, -0.0065, 0.0051, 0.0070, -0.0123, -0.0104, -0.0964, 0.0617, 0.1069, -0.0962, 375, 146608, 0.0000, 0.0000, 0.0000, 0.0000
1.4560, -0.2942, -0.0883, -9.6497, -0.0065, 0.0051, 0.0070, -0.0125, -0.0105, -0.0965, 0.0618, 0.1070, -0.0965, 376, 146608, 0.0000, 0.0000, 0.0000, 0.0000
1.4760, -0.2942, -0.0883, -9.6497, -0.0065, 0.0051, 0.0070, -0.0124, -0.0105, -0.0964, 0.0617, 0.1072, -0.0962, 377, 146608, 0.0000, 0.0000, 0.0000, 0.0000
1.4960, -0.2942, -0.0883, -9.6497, -0.0065, 0.0051, 0.0070, -0.0124, -0.0105, -0.0965, 0.0616, 0.1070, -0.0962, 378, 146608, 0.0000, 0.0000, 0.0000, 0.0000
1.5160, -0.2942, -0.0883, -9.6497, -0.0065, 0.0051, 0.0070, -0.0125, -0.0105, -0.0965, 0.0617, 0.1070, -0.0962, 379, 146608, 0.0000, 0.0000, 0.0000, 0.0000
1.5360, -0.2942, -0.0883, -9.6497, -0.0065, 0.0051, 0.0070, -0.0124, -0.0105, -0.0965, 0.0618, 0.1069, -0.0961, 380, 146608, 0.0000, 0.0000, 0.0000, 0.0000
1.5560, -0.2942, -0.0883, -9.6497, -0.0065, 0.0051, 0.0070, -0.0125, -0.0105, -0.0965, 0.0622, 0.1069, -0.0964, 381, 146608, 0.0000, 0.0000, 0.0000, 0.0000
1.5760, -0.2942, -0.0883, -9.6497, -0.0065, 0.0051, 0.0070, -0.0124, -0.0104, -0.0965, 0.0620, 0.1068, -0.0967, 382, 146608, 0.0000, 0.0000, 0.0000, 0.0000
1.5960, -0.2942, -0.0883, -9.6497, -0.0065, 0.0051, 0.0070, -0.0125, -0.0105, -0.0964, 0.0618, 0.1068, -0.0964, 383, 146608, 0.0000, 0.0000, 0.0000, 0.0000
1.6160, -0.2942, -0.0883, -9.6497, -0.0065, 0.0051, 0.0070, -0.0124, -0.0104, -0.0964, 0.0617, 0.1069, -0.0967, 384, 146608, 0.0000, 0.0000, 0.0000, 0.0000
1.6360, -0.2942, -0.0883, -9.6497, -0.0065, 0.0051, 0.0070, -0.0124, -0.0105, -0.0965, 0.0621, 0.1070, -0.0959, 385, 146608, 0.0000, 0.0000, 0.0000, 0.0000
1.6560, -0.2942, -0.0883, -9.6497, -0.0065, 0.0051, 0.0070, -0.0125, -0.0104, -0.0964, 0.0617, 0.1072, -0.0964, 386, 146608, 0.0000, 0.0000, 0.0000, 0.0000
1.6760, -0.2942, -0.0883, -9.6497, -0.0065, 0.0051, 0.0070, -0.0125, -0.0105, -0.0965, 0.0617, 0.1071, -0.0964, 387, 146608, 0.0000, 0.0000, 0.0000, 0.0000
1.6960, -0.2942, -0.0883, -9.6497, -0.0065, 0.0051, 0.0070, -0.0125, -0.0103, -0.0964, 0.0614, 0.1070, -0.0966, 388, 146608, 0.0000, 0.0000, 0.0000, 0.0000
1.7160, -0.2942, -0.0883, -9.6497, -0.0065, 0.0051, 0.0070, -0.0126, -0.0105, -0.0965, 0.0618, 0.1070, -0.0964, 389, 146608, 0.0000, 0.0000, 0.0000, 0.0000
1.7360, -0.2942, -0.0883, -9.6497, -0.0065, 0.0051, 0.0070, -0.0124, -0.0103, -0.0964, 0.0615, 0.1069, -0.0964, 390, 146608, 0.0000, 0.0000, 0.0000, 0.0000
1.7560, -0.2942, -0.0883, -9.6497, -0.0065, 0.0051, 0.0070, -0.0125, -0.0104, -0.0964, 0.0617, 0.1068, -0.0966, 391, 146608, 0.0000, 0.0000, 0.0000, 0.0000
1.7860, -0.2942, -0.0883, -9.6497, -0.0065, 0.0051, 0.0070, -0.0124, -0.0103, -0.0964, 0.0615, 0.1068, -0.0963, 392, 146608, 0.0000, 0.0000, 0.0000, 0.0000
1.7960, -0.2942, -0.0883, -9.6497, -0.0065, 0.0051, 0.0070, -0.0125, -0.0105, -0.0963, 0.0618, 0.1067, -0.0970, 393, 146608, 0.0000, 0.0000, 0.0000, 0.0000
1.8160, -0.2942, -0.0883, -9.6497, -0.0065, 0.0051, 0.0070, -0.0124, -0.0104, -0.0965, 0.0619, 0.1073, -0.0964, 394, 146608, 0.0000, 0.0000, 0.0000, 0.0000
1.8360, -0.2942, -0.0883, -9.6497, -0.0065, 0.0051, 0.0070, -0.0125, -0.0105, -0.0964, 0.0617, 0.1068, -0.0965, 395, 146608, 0.0000, 0.0000, 0.0000, 0.0000
1.8560, -0.2942, -0.0883, -9.6497, -0.0065, 0.0051, 0.0070, -0.0125, -0.0103, -0.0964, 0.0616, 0.1071, -0.0963, 396, 146608, 0.0000, 0.0000, 0.0000, 0.0000
1.8860, -0.2942, -0.0883, -9.6497, -0.0065, 0.0051, 0.0070, -0.0125, -0.0104, -0.0964, 0.0617, 0.1068, -0.0960, 397, 146608, 0.0000, 0.0000, 0.0000, 0.0000
1.8960, -0.2942, -0.0883, -9.6497, -0.0065, 0.0051, 0.0070, -0.0125, -0.0104, -0.0964, 0.0618, 0.1069, -0.0965, 398, 146608, 0.0000, 0.0000, 0.0000, 0.0000
1.9160, -0.2942, -0.0883, -9.6497, -0.0065, 0.0051, 0.0070, -0.0124, -0.0104, -0.0964, 0.0620, 0.1070, -0.0971, 399, 146608, 0.0000, 0.0000, 0.0000, 0.0000
1.9360, -0.2942, -0.0883, -9.6497, -0.0065, 0.0051, 0.0070, -0.0125, -0.0104, -0.0964, 0.0617, 0.1070, -0.0963, 400, 146608, 0.0000, 0.0000, 0.0000, 0.0000
1.9560, -0.2942, -0.0883, -9.6497, -0.0065, 0.0051, 0.0070, -0.0125, -0.0104, -0.0965, 0.0614, 0.1071, -0.0965, 401, 146608, 0.0000, 0.0000, 0.0000, 0.0000
1.9760, -0.2942, -0.0883, -9.6497, -0.0065, 0.0051, 0.0070, -0.0125, -0.0104, -0.0964, 0.0615, 0.1070, -0.0965, 402, 146608, 0.0000, 0.0000, 0.0000, 0.0000
1.9980, -0.2942, -0.0883, -9.6497, -0.0065, 0.0051, 0.0070, -0.0125, -0.0104, -0.0964, 0.0616, 0.1069, -0.0967, 403, 146608, 0.0000, 0.0000, 0.0000, 0.0000
2.0180, -0.2942, -0.0883, -9.6497, -0.0065, 0.0051, 0.0070, -0.0124, -0.0104, -0.0964, 0.0618, 0.1072, -0.0970, 404, 146608, 0.0000, 0.0000, 0.0000, 0.0000
2.0370, -0.2942, -0.0883, -9.6497, -0.0065, 0.0051, 0.0070, -0.0125, -0.0104, -0.0964, 0.0615, 0.1071, -0.0967, 405, 146608, 0.0000, 0.0000, 0.0000, 0.0000
2.0570, -0.2942, -0.0883, -9.6497, -0.0065, 0.0051, 0.0070, -0.0124, -0.0104, -0.0965, 0.0614, 0.1071, -0.0962, 406, 146608, 0.0000, 0.0000, 0.0000, 0.0000
2.0780, -0.2942, -0.0883, -9.6497, -0.0065, 0.0051, 0.0070, -0.0125, -0.0104, -0.0964, 0.0618, 0.1069, -0.0968, 407, 146608, 0.0000, 0.0000, 0.0000, 0.0000
2.0980, -0.2942, -0.0883, -9.6497, -0.0065, 0.0051, 0.0070, -0.0125, -0.0103, -0.0964, 0.0616, 0.1071, -0.0970, 408, 146608, 0.0000, 0.0000, 0.0000, 0.0000
2.1180, -0.2942, -0.0883, -9.6497, -0.0065, 0.0051, 0.0070, -0.0125, -0.0104, -0.0965, 0.0617, 0.1074, -0.0964, 409, 146608, 0.0000, 0.0000, 0.0000, 0.0000
2.1380, -0.2942, -0.0883, -9.6497, -0.0065, 0.0051, 0.0070, -0.0125, -0.0104, -0.0964, 0.0616, 0.1072, -0.0967, 410, 146608, 0.0000, 0.0000, 0.0000, 0.0000
2.1580, -0.2942, -0.0883, -9.6497, -0.0065, 0.0051, 0.0070, -0.0124, -0.0104, -0.0965, 0.0615, 0.1069, -0.0963, 411, 146608, 0.0000, 0.0000, 0.0000, 0.0000
2.1780, -0.2942, -0.0883, -9.6497, -0.0065, 0.0051, 0.0070, -0.0125, -0.0104, -0.0964, 0.0617, 0.1073, -0.0971, 412, 146608, 0.0000, 0.0000, 0.0000, 0.0000
2.1980, -0.2942, -0.0883, -9.6497, -0.0065, 0.0051, 0.0070, -0.0124, -0.0104, -0.0965, 0.0615, 0.1069, -0.0963, 413, 146608, 0.0000, 0.0000, 0.0000, 0.0000
2.2180, -0.2942, -0.0883, -9.6497, -0.0065, 0.0051, 0.0070, -0.0125, -0.0104, -0.0964, 0.0617, 0.1073, -0.0965, 414, 146608, 0.0000, 0.0000, 0.0000, 0.0000
2.2380, -0.2942, -0.0883, -9.6497, -0.0065, 0.0051, 0.0070, -0.0125, -0.0104, -0.0964, 0.0617, 0.1071, -0.0968, 415, 146608, 0.0000, 0.0000, 0.0000, 0.0000
2.2580, -0.2942, -0.0883, -9.6497, -0.0065, 0.0051, 0.0070, -0.0124, -0.0104, -0.0965, 0.0617, 0.1069, -0.0968, 416, 146608, 0.0000, 0.0000, 0.0000, 0.0000
2.2780, -0.2942, -0.0883, -9.6497, -0.0065, 0.0051, 0.0070, -0.0125, -0.0105, -0.0964, 0.0616, 0.1074, -0.0962, 417, 146608, 0.0000, 0.0000, 0.0000, 0.0000
2.2980, -0.2942, -0.0883, -9.6497, -0.0065, 0.0051, 0.0070, -0.0124, -0.0103, -0.0966, 0.0615, 0.1071, -0.0965, 418, 146608, 0.0000, 0.0000, 0.0000, 0.0000
2.3180, -0.2942, -0.0883, -9.6497, -0.0065, 0.0051, 0.0070, -0.0124, -0.0104, -0.0966, 0.0617, 0.1066, -0.0971, 419, 146608, 0.0000, 0.0000, 0.0000, 0.0000
2.3380, -0.2942, -0.0883, -9.6497, -0.0065, 0.0051, 0.0070, -0.0124, -0.0102, -0.0969, 0.0615, 0.1068, -0.0965, 420, 146608, 0.0000, 0.0000, 0.0000, 0.0000
2.3580, -0.2942, -0.0883, -9.6497, -0.0065, 0.0051, 0.0070, -0.0124, -0.0103, -0.0971, 0.0618, 0.1064, -0.0963, 421, 146608, 0.0000, 0.0000, 0.0000, 0.0000
2.3780, -0.2942, -0.0883, -9.6497, -0.0065, 0.0051, 0.0070, -0.0124, -0.0102, -0.0975, 0.0618, 0.1063, -0.0959, 422, 146608, 0.0000, 0.0000, 0.0000, 0.0000
2.3980, -0.2942, -0.0883, -9.6497, -0.0065, 0.0051, 0.0070, -0.0124, -0.0101, -0.0981, 0.0612, 0.1075, -0.0950, 423, 146608, 0.0000, 0.0000, 0.0000, 0.0000
2.4180, -0.0981, -0.0392, -9.7282, 0.0430, 0.2234, 0.0317, -0.0125, -0.0098, -0.0988, 0.0602, 0.1091, -0.0948, 424, 152363, 0.0000, 0.0000, 0.0000, 0.0000
2.4380, -0.0981, -0.0392, -9.7282, 0.0430, 0.2234, 0.0317, -0.0126, -0.0095, -0.1001, 0.0600, 0.1110, -0.0959, 425, 152363, 0.0000, 0.0000, 0.0000, 0.0000
2.4580, -0.0981, -0.0392, -9.7282, 0.0430, 0.2234, 0.0317, -0.0124, -0.0088, -0.1017, 0.0588, 0.1110, -0.0967, 426, 152363, 0.0000, 0.0000, 0.0000, 0.0000
2.4780, -0.0981, -0.0392, -9.7282, 0.0430, 0.2234, 0.0317, -0.0123, -0.0081, -0.1035, 0.0579, 0.1115, -0.0962, 427, 152363, 0.0000, 0.0000, 0.0000, 0.0000
2.4980, -0.0981, -0.0392, -9.7282, 0.0430, 0.2234, 0.0317, -0.0121, -0.0073, -0.1060, 0.0568, 0.1127, -0.0958, 428, 152363, 0.0000, 0.0000, 0.0000, 0.0000
2.5180, -0.0981, -0.0392, -9.7282, 0.0430, 0.2234, 0.0317, -0.0116, -0.0065, -0.1089, 0.0553, 0.1123, -0.0945, 429, 152363, 0.0000, 0.0000, 0.0000, 0.0000
2.5380, -0.0981, -0.0392, -9.7282, 0.0430, 0.2234, 0.0317, -0.0111, -0.0054, -0.1122, 0.0544, 0.1125, -0.0953, 430, 152363, 0.0000, 0.0000, 0.0000, 0.0000
2.5580, -0.0981, -0.0392, -9.7282, 0.0430, 0.2234, 0.0317, -0.0108, -0.0044, -0.1158, 0.0525, 0.1130, -0.0954, 431, 152363, 0.0000, 0.0000, 0.0000, 0.0000
2.5780, -0.0981, -0.0392, -9.7282, 0.0430, 0.2234, 0.0317, -0.0105, -0.0033, -0.1197, 0.0512, 0.1142, -0.0958, 432, 152363, 0.0000, 0.0000, 0.0000, 0.0000
2.5980, -0.0981, -0.0392, -9.7282, 0.0430, 0.2234, 0.0317, -0.0100, -0.0020, -0.1238, 0.0499, 0.1147, -0.0966, 433, 152363, 0.0000, 0.0000, 0.0000, 0.0000
2.6180, -0.0981, -0.0392, -9.7282, 0.0430, 0.2234, 0.0317, -0.0094, -0.0007, -0.1279, 0.0486, 0.1155, -0.0983, 434, 152363, 0.0000, 0.0000, 0.0000, 0.0000
2.6380, -0.0981, -0.0392, -9.7282, 0.0430, 0.2234, 0.0317, -0.0090, 0.0007, -0.1323, 0.0474, 0.1173, -0.1000, 435, 152363, 0.0000, 0.0000, 0.0000, 0.0000
2.6570, -0.0981, -0.0392, -9.7282, 0.0430, 0.2234, 0.0317, -0.0085, 0.0022, -0.1365, 0.0462, 0.1186, -0.1029, 436, 152363, 0.0000, 0.0000, 0.0000, 0.0000
2.6780, -0.0981, -0.0392, -9.7282, 0.0430, 0.2234, 0.0317, -0.0078, 0.0037, -0.1409, 0.0452, 0.1195, -0.1048, 437, 152363, 0.0000, 0.0000, 0.0000, 0.0000
2.6980, -0.0981, -0.0392, -9.7282, 0.0430, 0.2234, 0.0317, -0.0071, 0.0053, -0.1452, 0.0439, 0.1214, -0.1068, 438, 152363, 0.0000, 0.0000, 0.0000, 0.0000
2.7170, -0.0981, -0.0392, -9.7282, 0.0430, 0.2234, 0.0317, -0.0065, 0.0070, -0.1494, 0.0427, 0.1221, -0.1086, 439, 152363, 0.0000, 0.0000, 0.0000, 0.0000
2.7380, -0.0981, -0.0392, -9.7282, 0.0430, 0.2234, 0.0317, -0.0058, 0.0086, -0.1537, 0.0417, 0.1233, -0.1108, 440, 152363, 0.0000, 0.0000, 0.0000, 0.0000
2.7580, -0.0981, -0.0392, -9.7282, 0.0430, 0.2234, 0.0317, -0.0052, 0.0105, -0.1579, 0.0407, 0.1241, -0.1132, 441, 152363, 0.0000, 0.0000, 0.0000, 0.0000
2.7780, -0.0981, -0.0392, -9.7282, 0.0430, 0.2234, 0.0317, -0.0043, 0.0123, -0.1620, 0.0391, 0.1239, -0.1148, 442, 152363, 0.0000, 0.0000, 0.0000, 0.0000
2.7980, -0.0981, -0.0392, -9.7282, 0.0430, 0.2234, 0.0317, -0.0036, 0.0140, -0.1658, 0.0379, 0.1240, -0.1168, 443, 152363, 0.0000, 0.0000, 0.0000, 0.0000
2.8180, -0.0981, -0.0392, -9.7282, 0.0430, 0.2234, 0.0317, -0.0028, 0.0160, -0.1697, 0.0364, 0.1233, -0.1185, 444, 152363, 0.0000, 0.0000, 0.0000, 0.0000
2.8380, -0.0981, -0.0392, -9.7282, 0.0430, 0.2234, 0.0317, -0.0019, 0.0178, -0.1734, 0.0351, 0.1236, -0.1196, 445, 152363, 0.0000, 0.0000, 0.0000, 0.0000
2.8580, -0.0981, -0.0392, -9.7282, 0.0430, 0.2234, 0.0317, -0.0013, 0.0197, -0.1767, 0.0335, 0.1241, -0.1204, 446, 152363, 0.0000, 0.0000, 0.0000, 0.0000
2.8780, -0.0981, -0.0392, -9.7282, 0.0430, 0.2234, 0.0317, -0.0005, 0.0215, -0.1801, 0.0325, 0.1254, -0.1212, 447, 152363, 0.0000, 0.0000, 0.0000, 0.0000
2.8980, -0.0981, -0.0392, -9.7282, 0.0430, 0.2234, 0.0317, 0.0001, 0.0235, -0.1833, 0.0311, 0.1261, -0.1223, 448, 152363, 0.0000, 0.0000, 0.0000, 0.0000
2.9180, -0.0981, -0.0392, -9.7282, 0.0430, 0.2234, 0.0317, 0.0009, 0.0254, -0.1862, 0.0298, 0.1268, -0.1234, 449, 152363, 0.0000, 0.0000, 0.0000, 0.0000
2.9380, -0.0981, -0.0392, -9.7282, 0.0430, 0.2234, 0.0317, 0.0015, 0.0273, -0.1889, 0.0283, 0.1271, -0.1238, 450, 152363, 0.0000, 0.0000, 0.0000, 0.0000
2.9570, -0.0981, -0.0392, -9.7282, 0.0430, 0.2234, 0.0317, 0.0021, 0.0293, -0.1914, 0.0273, 0.1279, -0.1247, 451, 152363, 0.0000, 0.0000, 0.0000, 0.0000
2.9780, -0.0981, -0.0392, -9.7282, 0.0430, 0.2234, 0.0317, 0.0028, 0.0311, -0.1938, 0.0260, 0.1278, -0.1256, 452, 152363, 0.0000, 0.0000, 0.0000, 0.0000
2.9980, -0.0981, -0.0392, -9.7282, 0.0430, 0.2234, 0.0317, 0.0035, 0.0330, -0.1957, 0.0248, 0.1277, -0.1260, 453, 152363, 0.0000, 0.0000, 0.0000, 0.0000
3.0180, -0.0981, -0.0392, -9.7282, 0.0430, 0.2234, 0.0317, 0.0042, 0.0349, -0.1977, 0.0234, 0.1274, -0.1279, 454, 152363, 0.0000, 0.0000, 0.0000, 0.0000
3.0380, -0.0981, -0.0392, -9.7282, 0.0430, 0.2234, 0.0317, 0.0048, 0.0365, -0.1993, 0.0226, 0.1276, -0.1300, 455, 152363, 0.0000, 0.0000, 0.0000, 0.0000
3.0580, -0.0981, -0.0392, -9.7282, 0.0430, 0.2234, 0.0317, 0.0055, 0.0382, -0.2009, 0.0214, 0.1275, -0.1311, 456, 152363, 0.0000, 0.0000, 0.0000, 0.0000
3.0780, -0.0981, -0.0392, -9.7282, 0.0430, 0.2234, 0.0317, 0.0060, 0.0400, -0.2023, 0.0206, 0.1275, -0.1328, 457, 152363, 0.0000, 0.0000, 0.0000, 0.0000
3.0980, -0.0981, -0.0392, -9.7282, 0.0430, 0.2234, 0.0317, 0.0067, 0.0417, -0.2035, 0.0192, 0.1272, -0.1340, 458, 152363, 0.0000, 0.0000, 0.0000, 0.0000
3.1180, -0.0981, -0.0392, -9.7282, 0.0430, 0.2234, 0.0317, 0.0073, 0.0432, -0.2048, 0.0187, 0.1277, -0.1357, 459, 152363, 0.0000, 0.0000, 0.0000, 0.0000
3.1380, -0.0981, -0.0392, -9.7282, 0.0430, 0.2234, 0.0317, 0.0078, 0.0448, -0.2058, 0.0178, 0.1280, -0.1362, 460, 152363, 0.0000, 0.0000, 0.0000, 0.0000
3.1580, -0.0981, -0.0392, -9.7282, 0.0430, 0.2234, 0.0317, 0.0084, 0.0463, -0.2068, 0.0172, 0.1281, -0.1366, 461, 152363, 0.0000, 0.0000, 0.0000, 0.0000
3.1780, -0.0981, -0.0392, -9.7282, 0.0430, 0.2234, 0.0317, 0.0089, 0.0477, -0.2077, 0.0168, 0.1280, -0.1373, 462, 152363, 0.0000, 0.0000, 0.0000, 0.0000
3.1980, -0.0981, -0.0392, -9.7282, 0.0430, 0.2234, 0.0317, 0.0095, 0.0492, -0.2086, 0.0162, 0.1296, -0.1370, 463, 152363, 0.0000, 0.0000, 0.0000, 0.0000
3.2180, -0.0981, -0.0392, -9.7282, 0.0430, 0.2234, 0.0317, 0.0098, 0.0506, -0.2094, 0.0154, 0.1299, -0.1365, 464, 152363, 0.0000, 0.0000, 0.0000, 0.0000
3.2380, -0.0981, -0.0392, -9.7282, 0.0430, 0.2234, 0.0317, 0.0101, 0.0518, -0.2102, 0.0149, 0.1299, -0.1361, 465, 152363, 0.0000, 0.0000, 0.0000, 0.0000
3.2580, -0.0981, -0.0392, -9.7282, 0.0430, 0.2234, 0.0317, 0.0106, 0.0532, -0.2110, 0.0144, 0.1303, -0.1359, 466, 152363, 0.0000, 0.0000, 0.0000, 0.0000
3.2780, -0.0981, -0.0392, -9.7282, 0.0430, 0.2234, 0.0317, 0.0110, 0.0543, -0.2116, 0.0135, 0.1296, -0.1360, 467, 152363, 0.0000, 0.0000, 0.0000, 0.0000
3.2980, -0.0981, -0.0392, -9.7282, 0.0430, 0.2234, 0.0317, 0.0114, 0.0554, -0.2122, 0.0128, 0.1294, -0.1360, 468, 152363, 0.0000, 0.0000, 0.0000, 0.0000
3.3180, -0.0981, -0.0392, -9.7282, 0.0430, 0.2234, 0.0317, 0.0117, 0.0564, -0.2128, 0.0127, 0.1299, -0.1363, 469, 152363, 0.0000, 0.0000, 0.0000, 0.0000
3.3380, -0.0981, -0.0392, -9.7282, 0.0430, 0.2234, 0.0317, 0.0121, 0.0574, -0.2134, 0.0124, 0.1304, -0.1360, 470, 152363, 0.0000, 0.0000, 0.0000, 0.0000
3.3580, -0.0981, -0.0392, -9.7282, 0.0430, 0.2234, 0.0317, 0.0125, 0.0582, -0.2140, 0.0118, 0.1304, -0.1355, 471, 152363, 0.0000, 0.0000, 0.0000, 0.0000
3.3780, -0.0981, -0.0392, -9.7282, 0.0430, 0.2234, 0.0317, 0.0126, 0.0591, -0.2148, 0.0112, 0.1295, -0.1356, 472, 152363, 0.0000, 0.0000, 0.0000, 0.0000
3.3980, -0.0981, -0.0392, -9.7282, 0.0430, 0.2234, 0.0317, 0.0129, 0.0600, -0.2157, 0.0107, 0.1288, -0.1353, 473, 152363, 0.0000, 0.0000, 0.0000, 0.0000
3.4180, -0.0981, -0.0392, -9.7282, 0.0430, 0.2234, 0.0317, 0.0132, 0.0608, -0.2165, 0.0100, 0.1274, -0.1351, 474, 152363, 0.0000, 0.0000, 0.0000, 0.0000
3.4380, -0.0981, -0.0392, -9.7282, 0.0430, 0.2234, 0.0317, 0.0133, 0.0616, -0.2174, 0.0095, 0.1268, -0.1348, 475, 152363, 0.0000, 0.0000, 0.0000, 0.0000
3.4580, -0.0981, -0.0392, -9.7282, 0.0430, 0.2234, 0.0317, 0.0136, 0.0622, -0.2184, 0.0092, 0.1259, -0.1346, 476, 152363, 0.0000, 0.0000, 0.0000, 0.0000
3.4780, -0.0981, -0.0392, -9.7282, 0.0430, 0.2234, 0.0317, 0.0137, 0.0629, -0.2191, 0.0092, 0.1253, -0.1349, 477, 152363, 0.0000, 0.0000, 0.0000, 0.0000
3.4980, -0.0981, -0.0392, -9.7282, 0.0430, 0.2234, 0.0317, 0.0140, 0.0635, -0.2201, 0.0089, 0.1251, -0.1352, 478, 152363, 0.0000, 0.0000, 0.0000, 0.0000
3.5180, -0.0981, -0.0392, -9.7282, 0.0430, 0.2234, 0.0317, 0.0140, 0.0640, -0.2207, 0.0085, 0.1248, -0.1353, 479, 152363, 0.0000, 0.0000, 0.0000, 0.0000
3.5380, -0.0981, -0.0392, -9.7282, 0.0430, 0.2234, 0.0317, 0.0142, 0.0646, -0.2216, 0.0086, 0.1249, -0.1350, 480, 152363, 0.0000, 0.0000, 0.0000, 0.0000
3.5580, -0.0981, -0.0392, -9.7282, 0.0430, 0.2234, 0.0317, 0.0144, 0.0650, -0.2223, 0.0086, 0.1247, -0.1354, 481, 152363, 0.0000, 0.0000, 0.0000, 0.0000
3.5780, -0.0981, -0.0392, -9.7282, 0.0430, 0.2234, 0.0317, 0.0145, 0.0654, -0.2230, 0.0087, 0.1236, -0.1358, 482, 152363, 0.0000, 0.0000, 0.0000, 0.0000
3.5980, -0.0981, -0.0392, -9.7282, 0.0430, 0.2234, 0.0317, 0.0147, 0.0657, -0.2238, 0.0087, 0.1232, -0.1356, 483, 152363, 0.0000, 0.0000, 0.0000, 0.0000
3.6180, -0.0981, -0.0392, -9.7282, 0.0430, 0.2234, 0.0317, 0.0148, 0.0661, -0.2245, 0.0085, 0.1223, -0.1354, 484, 152363, 0.0000, 0.0000, 0.0000, 0.0000
3.6380, -0.0981, -0.0392, -9.7282, 0.0430, 0.2234, 0.0317, 0.0150, 0.0663, -0.2254, 0.0088, 0.1213, -0.1359, 485, 152363, 0.0000, 0.0000, 0.0000, 0.0000
3.6580, -0.0981, -0.0392, -9.7282, 0.0430, 0.2234, 0.0317, 0.0152, 0.0665, -0.2261, 0.0084, 0.1204, -0.1356, 486, 152363, 0.0000, 0.0000, 0.0000, 0.0000
3.6780, -0.0981, -0.0392, -9.7282, 0.0430, 0.2234, 0.0317, 0.0154, 0.0667, -0.2268, 0.0083, 0.1197, -0.1350, 487, 152363, 0.0000, 0.0000, 0.0000, 0.0000
3.6980, -0.0981, -0.0392, -9.7282, 0.0430, 0.2234, 0.0317, 0.0157, 0.0668, -0.2277, 0.0083, 0.1183, -0.1346, 488, 152363, 0.0000, 0.0000, 0.0000, 0.0000
3.7180, -0.0981, -0.0392, -9.7282, 0.0430, 0.2234, 0.0317, 0.0158, 0.0668, -0.2284, 0.0079, 0.1169, -0.1343, 489, 152363, 0.0000, 0.0000, 0.0000, 0.0000
3.7380, -0.0981, -0.0392, -9.7282, 0.0430, 0.2234, 0.0317, 0.0161, 0.0669, -0.2292, 0.0080, 0.1164, -0.1342, 490, 152363, 0.0000, 0.0000, 0.0000, 0.0000
3.7580, -0.0981, -0.0392, -9.7282, 0.0430, 0.2234, 0.0317, 0.0164, 0.0668, -0.2299, 0.0078, 0.1149, -0.1342, 491, 152363, 0.0000, 0.0000, 0.0000, 0.0000
3.7780, -0.0981, -0.0392, -9.7282, 0.0430, 0.2234, 0.0317, 0.0166, 0.0667, -0.2307, 0.0082, 0.1138, -0.1347, 492, 152363, 0.0000, 0.0000, 0.0000, 0.0000
3.7980, -0.0981, -0.0392, -9.7282, 0.0430, 0.2234, 0.0317, 0.0170, 0.0666, -0.2313, 0.0080, 0.1130, -0.1341, 493, 152363, 0.0000, 0.0000, 0.0000, 0.0000
3.8180, -0.0981, -0.0392, -9.7282, 0.0430, 0.2234, 0.0317, 0.0173, 0.0663, -0.2319, 0.0083, 0.1123, -0.1341, 494, 152363, 0.0000, 0.0000, 0.0000, 0.0000
3.8380, -0.0981, -0.0392, -9.7282, 0.0430, 0.2234, 0.0317, 0.0176, 0.0661, -0.2325, 0.0083, 0.1123, -0.1335, 495, 152363, 0.0000, 0.0000, 0.0000, 0.0000
3.8580, -0.0981, -0.0392, -9.7282, 0.0430, 0.2234, 0.0317, 0.0180, 0.0658, -0.2330, 0.0082, 0.1122, -0.1330, 496, 152363, 0.0000, 0.0000, 0.0000, 0.0000
3.8780, -0.0981, -0.0392, -9.7282, 0.0430, 0.2234, 0.0317, 0.0184, 0.0657, -0.2333, 0.0082, 0.1116, -0.1327, 497, 152363, 0.0000, 0.0000, 0.0000, 0.0000
3.8980, -0.0981, -0.0392, -9.7282, 0.0430, 0.2234, 0.0317, 0.0188, 0.0653, -0.2337, 0.0081, 0.1123, -0.1323, 498, 152363, 0.0000, 0.0000, 0.0000, 0.0000
3.9180, -0.0981, -0.0392, -9.7282, 0.0430, 0.2234, 0.0317, 0.0192, 0.0649, -0.2341, 0.0082, 0.1119, -0.1324, 499, 152363, 0.0000, 0.0000, 0.0000, 0.0000
3.9380, -0.0981, -0.0392, -9.7282, 0.0430, 0.2234, 0.0317, 0.0197, 0.0644, -0.2344, 0.0084, 0.1117, -0.1318, 500, 152363, 0.0000, 0.0000, 0.0000, 0.0000
3.9580, -0.0981, -0.0392, -9.7282, 0.0430, 0.2234, 0.0317, 0.0202, 0.0640, -0.2347, 0.0080, 0.1116, -0.1319, 501, 152363, 0.0000, 0.0000, 0.0000, 0.0000
3.9780, -0.0981, -0.0392, -9.7282, 0.0430, 0.2234, 0.0317, 0.0208, 0.0636, -0.2349, 0.0083, 0.1113, -0.1312, 502, 152363, 0.0000, 0.0000, 0.0000, 0.0000
3.9990, -0.0981, -0.0392, -9.7282, 0.0430, 0.2234, 0.0317, 0.0214, 0.0630, -0.2350, 0.0080, 0.1111, -0.1306, 503, 152363, 0.0000, 0.0000, 0.0000, 0.0000
4.0190, -0.0981, -0.0392, -9.7282, 0.0430, 0.2234, 0.0317, 0.0220, 0.0625, -0.2354, 0.0078, 0.1113, -0.1295, 504, 152363, 0.0000, 0.0000, 0.0000, 0.0000
4.0390, -0.0981, -0.0392, -9.7282, 0.0430, 0.2234, 0.0317, 0.0226, 0.0619, -0.2355, 0.0080, 0.1107, -0.1292, 505, 152363, 0.0000, 0.0000, 0.0000, 0.0000
4.0590, -0.0981, -0.0392, -9.7282, 0.0430, 0.2234, 0.0317, 0.0234, 0.0613, -0.2359, 0.0078, 0.1105, -0.1280, 506, 152363, 0.0000, 0.0000, 0.0000, 0.0000
4.0790, -0.0981, -0.0392, -9.7282, 0.0430, 0.2234, 0.0317, 0.0242, 0.0607, -0.2361, 0.0083, 0.1102, -0.1279, 507, 152363, 0.0000, 0.0000, 0.0000, 0.0000
4.0990, -0.0981, -0.0392, -9.7282, 0.0430, 0.2234, 0.0317, 0.0249, 0.0601, -0.2362, 0.0081, 0.1106, -0.1273, 508, 152363, 0.0000, 0.0000, 0.0000, 0.0000
4.1190, -0.0981, -0.0392, -9.7282, 0.0430, 0.2234, 0.0317, 0.0257, 0.0595, -0.2364, 0.0083, 0.1116, -0.1265, 509, 152363, 0.0000, 0.0000, 0.0000, 0.0000
4.1390, -0.0981, -0.0392, -9.7282, 0.0430, 0.2234, 0.0317, 0.0264, 0.0587, -0.2364, 0.0087, 0.1124, -0.1260, 510, 152363, 0.0000, 0.0000, 0.0000, 0.0000
4.1610, -0.0981, -0.0392, -9.7282, 0.0430, 0.2234, 0.0317, 0.0273, 0.0580, -0.2366, 0.0086, 0.1132, -0.1249, 511, 152363, 0.0000, 0.0000, 0.0000, 0.0000
4.1810, -0.0981, -0.0392, -9.7282, 0.0430, 0.2234, 0.0317, 0.0283, 0.0574, -0.2367, 0.0083, 0.1133, -0.1245, 512, 152363, 0.0000, 0.0000, 0.0000, 0.0000
4.2010, -0.0981, -0.0392, -9.7282, 0.0430, 0.2234, 0.0317, 0.0291, 0.0567, -0.2368, 0.0082, 0.1132, -0.1240, 513, 152363, 0.0000, 0.0000, 0.0000, 0.0000
4.2210, -0.0981, -0.0392, -9.7282, 0.0430, 0.2234, 0.0317, 0.0301, 0.0559, -0.2370, 0.0080, 0.1135, -0.1233, 514, 152363, 0.0000, 0.0000, 0.0000, 0.0000
4.2410, -0.0981, -0.0392, -9.7282, 0.0430, 0.2234, 0.0317, 0.0310, 0.0551, -0.2371, 0.0082, 0.1131, -0.1225, 515, 152363, 0.0000, 0.0000, 0.0000, 0.0000
4.2600, -0.0981, -0.0392, -9.7282, 0.0430, 0.2234, 0.0317, 0.0323, 0.0544, -0.2374, 0.0078, 0.1122, -0.1219, 516, 152363, 0.0000, 0.0000, 0.0000, 0.0000
4.2800, -0.0981, -0.0392, -9.7282, 0.0430, 0.2234, 0.0317, 0.0333, 0.0536, -0.2374, 0.0077, 0.1124, -0.1217, 517, 152363, 0.0000, 0.0000, 0.0000, 0.0000
4.3000, -0.0981, -0.0392, -9.7282, 0.0430, 0.2234, 0.0317, 0.0343, 0.0530, -0.2376, 0.0076, 0.1134, -0.1210, 518, 152363, 0.0000, 0.0000, 0.0000, 0.0000
4.3210, -0.0981, -0.0392, -9.7282, 0.0430, 0.2234, 0.0317, 0.0354, 0.0521, -0.2378, 0.0077, 0.1140, -0.1203, 519, 152363, 0.0000, 0.0000, 0.0000, 0.0000
4.3370, -0.0981, -0.0392, -9.7282, 0.0430, 0.2234, 0.0317, 0.0364, 0.0514, -0.2378, 0.0080, 0.1152, -0.1205, 520, 152363, 0.0000, 0.0000, 0.0000, 0.0000
4.3580, -0.0981, -0.0392, -9.7282, 0.0430, 0.2234, 0.0317, 0.0375, 0.0505, -0.2380, 0.0080, 0.1168, -0.1197, 521, 152363, 0.0000, 0.0000, 0.0000, 0.0000
4.3780, -0.0981, -0.0392, -9.7282, 0.0430, 0.2234, 0.0317, 0.0386, 0.0498, -0.2380, 0.0078, 0.1184, -0.1199, 522, 152363, 0.0000, 0.0000, 0.0000, 0.0000
4.4020, -0.0981, -0.0392, -9.7282, 0.0430, 0.2234, 0.0317, 0.0398, 0.0490, -0.2381, 0.0079, 0.1189, -0.1198, 523, 152363, 0.0000, 0.0000, 0.0000, 0.0000
4.4220, 0.1863, 0.2452, -9.6596, 0.0180, -0.0148, -0.0271, 0.0411, 0.0482, -0.2383, 0.0075, 0.1190, -0.1199, 524, 154363, 0.0000, 0.0000, 0.0000, 0.0000
4.4420, 0.1863, 0.2452, -9.6596, 0.0180, -0.0148, -0.0271, 0.0422, 0.0474, -0.2384, 0.0075, 0.1190, -0.1197, 525, 154363, 0.0000, 0.0000, 0.0000, 0.0000
4.4620, 0.1863, 0.2452, -9.6596, 0.0180, -0.0148, -0.0271, 0.0435, 0.0467, -0.2388, 0.0070, 0.1192, -0.1186, 526, 154363, 0.0000, 0.0000, 0.0000, 0.0000
4.4820, 0.1863, 0.2452, -9.6596, 0.0180, -0.0148, -0.0271, 0.0447, 0.0460, -0.2391, 0.0067, 0.1193, -0.1183, 527, 154363, 0.0000, 0.0000, 0.0000, 0.0000
4.5020, 0.1863, 0.2452, -9.6596, 0.0180, -0.0148, -0.0271, 0.0459, 0.0452, -0.2394, 0.0068, 0.1195, -0.1177, 528, 154363, 0.0000, 0.0000, 0.0000, 0.0000
4.5220, 0.1863, 0.2452, -9.6596, 0.0180, -0.0148, -0.0271, 0.0470, 0.0445, -0.2398, 0.0067, 0.1206, -0.1169, 529, 154363, 0.0000, 0.0000, 0.0000, 0.0000
4.5420, 0.1863, 0.2452, -9.6596, 0.0180, -0.0148, -0.0271, 0.0483, 0.0439, -0.2400, 0.0067, 0.1217, -0.1159, 530, 154363, 0.0000, 0.0000, 0.0000, 0.0000
4.5620, 0.1863, 0.2452, -9.6596, 0.0180, -0.0148, -0.0271, 0.0495, 0.0431, -0.2404, 0.0066, 0.1231, -0.1151, 531, 154363, 0.0000, 0.0000, 0.0000, 0.0000
4.5820, 0.1863, 0.2452, -9.6596, 0.0180, -0.0148, -0.0271, 0.0507, 0.0425, -0.2406, 0.0064, 0.1236, -0.1149, 532, 154363, 0.0000, 0.0000, 0.0000, 0.0000
4.6020, 0.1863, 0.2452, -9.6596, 0.0180, -0.0148, -0.0271, 0.0520, 0.0420, -0.2409, 0.0064, 0.1245, -0.1146, 533, 154363, 0.0000, 0.0000, 0.0000, 0.0000
4.6220, 0.1863, 0.2452, -9.6596, 0.0180, -0.0148, -0.0271, 0.0530, 0.0414, -0.2412, 0.0063, 0.1262, -0.1135, 534, 154363, 0.0000, 0.0000, 0.0000, 0.0000
4.6420, 0.1863, 0.2452, -9.6596, 0.0180, -0.0148, -0.0271, 0.0543, 0.0409, -0.2415, 0.0059, 0.1275, -0.1129, 535, 154363, 0.0000, 0.0000, 0.0000, 0.0000
4.6620, 0.1863, 0.2452, -9.6596, 0.0180, -0.0148, -0.0271, 0.0553, 0.0405, -0.2416, 0.0062, 0.1286, -0.1125, 536, 154363, 0.0000, 0.0000, 0.0000, 0.0000
4.6820, 0.1863, 0.2452, -9.6596, 0.0180, -0.0148, -0.0271, 0.0563, 0.0399, -0.2420, 0.0063, 0.1290, -0.1124, 537, 154363, 0.0000, 0.0000, 0.0000, 0.0000
4.7020, 0.1863, 0.2452, -9.6596, 0.0180, -0.0148, -0.0271, 0.0574, 0.0393, -0.2422, 0.0064, 0.1289, -0.1117, 538, 154363, 0.0000, 0.0000, 0.0000, 0.0000
4.7220, 0.1863, 0.2452, -9.6596, 0.0180, -0.0148, -0.0271, 0.0586, 0.0390, -0.2423, 0.0062, 0.1288, -0.1117, 539, 154363, 0.0000, 0.0000, 0.0000, 0.0000
4.7420, 0.1863, 0.2452, -9.6596, 0.0180, -0.0148, -0.0271, 0.0596, 0.0385, -0.2425, 0.0061, 0.1289, -0.1119, 540, 154363, 0.0000, 0.0000, 0.0000, 0.0000
4.7620, 0.1863, 0.2452, -9.6596, 0.0180, -0.0148, -0.0271, 0.0606, 0.0381, -0.2424, 0.0062, 0.1289, -0.1132, 541, 154363, 0.0000, 0.0000, 0.0000, 0.0000
4.7820, 0.1863, 0.2452, -9.6596, 0.0180, -0.0148, -0.0271, 0.0616, 0.0377, -0.2425, 0.0056, 0.1289, -0.1139, 542, 154363, 0.0000, 0.0000, 0.0000, 0.0000
4.8020, 0.1863, 0.2452, -9.6596, 0.0180, -0.0148, -0.0271, 0.0624, 0.0373, -0.2426, 0.0057, 0.1294, -0.1142, 543, 154363, 0.0000, 0.0000, 0.0000, 0.0000
4.8220, 0.1863, 0.2452, -9.6596, 0.0180, -0.0148, -0.0271, 0.0633, 0.0370, -0.2425, 0.0055, 0.1293, -0.1139, 544, 154363, 0.0000, 0.0000, 0.0000, 0.0000
4.8420, 0.1863, 0.2452, -9.6596, 0.0180, -0.0148, -0.0271, 0.0643, 0.0368, -0.2425, 0.0053, 0.1296, -0.1135, 545, 154363, 0.0000, 0.0000, 0.0000, 0.0000
4.8620, 0.1863, 0.2452, -9.6596, 0.0180, -0.0148, -0.0271, 0.0651, 0.0366, -0.2424, 0.0053, 0.1292, -0.1142, 546, 154363, 0.0000, 0.0000, 0.0000, 0.0000
4.8820, 0.1863, 0.2452, -9.6596, 0.0180, -0.0148, -0.0271, 0.0661, 0.0362, -0.2423, 0.0052, 0.1293, -0.1137, 547, 154363, 0.0000, 0.0000, 0.0000, 0.0000
4.9020, 0.1863, 0.2452, -9.6596, 0.0180, -0.0148, -0.0271, 0.0668, 0.0360, -0.2422, 0.0054, 0.1297, -0.1134, 548, 154363, 0.0000, 0.0000, 0.0000, 0.0000
4.9220, 0.1863, 0.2452, -9.6596, 0.0180, -0.0148, -0.0271, 0.0674, 0.0361, -0.2418, 0.0050, 0.1349, -0.1079, 549, 154363, 0.0000, 0.0000, 0.0000, 0.0000
4.9420, 0.1863, 0.2452, -9.6596, 0.0180, -0.0148, -0.0271, 0.0674, 0.0364, -0.2409, 0.0063, 0.1486, -0.0970, 550, 154363, 0.0000, 0.0000, 0.0000, 0.0000
4.9620, 0.1863, 0.2452, -9.6596, 0.0180, -0.0148, -0.0271, 0.0671, 0.0369, -0.2398, 0.0079, 0.1682, -0.0851, 551, 154363, 0.0000, 0.0000, 0.0000, 0.0000
4.9820, 0.1863, 0.2452, -9.6596, 0.0180, -0.0148, -0.0271, 0.0667, 0.0373, -0.2385, 0.0091, 0.1877, -0.0743, 552, 154363, 0.0000, 0.0000, 0.0000, 0.0000
5.0020, 0.1863, 0.2452, -9.6596, 0.0180, -0.0148, -0.0271, 0.0664, 0.0378, -0.2372, 0.0096, 0.2015, -0.0697, 553, 154363, 0.0000, 0.0000, 0.0000, 0.0000
5.0220, 0.1863, 0.2452, -9.6596, 0.0180, -0.0148, -0.0271, 0.0661, 0.0381, -0.2366, 0.0104, 0.2061, -0.0717, 554, 154363, 0.0000, 0.0000, -0.0007, 0.0000
5.0420, 0.1863, 0.2452, -9.6596, 0.0180, -0.0148, -0.0271, 0.0659, 0.0383, -0.2362, 0.0105, 0.2029, -0.0760, 555, 154363, 0.0000, 0.0000, -0.0073, 0.0000
5.0620, 0.1863, 0.2452, -9.6596, 0.0180, -0.0148, -0.0271, 0.0655, 0.0389, -0.2358, 0.0095, 0.1967, -0.0799, 556, 154363, 0.0000, 0.0000, -0.0140, 0.0000
5.0820, 0.1863, 0.2452, -9.6596, 0.0180, -0.0148, -0.0271, 0.0647, 0.0396, -0.2353, 0.0092, 0.1918, -0.0830, 557, 154363, 0.0000, 0.0000, -0.0207, 0.0000
5.1020, 0.1863, 0.2452, -9.6596, 0.0180, -0.0148, -0.0271, 0.0636, 0.0406, -0.2348, 0.0085, 0.1881, -0.0845, 558, 154363, 0.0000, 0.0000, -0.0273, 0.0000
5.1220, 0.1863, 0.2452, -9.6596, 0.0180, -0.0148, -0.0271, 0.0623, 0.0416, -0.2341, 0.0079, 0.1846, -0.0860, 559, 154363, 0.0000, 0.0000, -0.0340, 0.0000
5.1420, 0.1863, 0.2452, -9.6596, 0.0180, -0.0148, -0.0271, 0.0607, 0.0428, -0.2338, 0.0072, 0.1794, -0.0894, 560, 154363, 0.0000, 0.0000, -0.0407, 0.0000
5.1620, 0.1863, 0.2452, -9.6596, 0.0180, -0.0148, -0.0271, 0.0592, 0.0438, -0.2340, 0.0064, 0.1721, -0.0951, 561, 154363, 0.0000, 0.0000, -0.0473, 0.0000
5.1820, 0.1863, 0.2452, -9.6596, 0.0180, -0.0148, -0.0271, 0.0573, 0.0451, -0.2342, 0.0055, 0.1641, -0.1013, 562, 154363, 0.0000, 0.0000, -0.0540, 0.0000
5.2020, 0.1863, 0.2452, -9.6596, 0.0180, -0.0148, -0.0271, 0.0551, 0.0464, -0.2348, 0.0048, 0.1568, -0.1054, 563, 154363, 0.0000, 0.0000, -0.0607, 0.0000
5.2220, 0.1863, 0.2452, -9.6596, 0.0180, -0.0148, -0.0271, 0.0530, 0.0479, -0.2352, 0.0038, 0.1499, -0.1085, 564, 154363, 0.0000, 0.0000, -0.0673, 0.0000
5.2420, 0.1863, 0.2452, -9.6596, 0.0180, -0.0148, -0.0271, 0.0506, 0.0492, -0.2357, 0.0031, 0.1433, -0.1113, 565, 154363, 0.0000, 0.0000, -0.0740, 0.0000
5.2620, 0.1863, 0.2452, -9.6596, 0.0180, -0.0148, -0.0271, 0.0482, 0.0507, -0.2364, 0.0026, 0.1377, -0.1137, 566, 154363, 0.0000, 0.0000, -0.0807, 0.0000
5.2820, 0.1863, 0.2452, -9.6596, 0.0180, -0.0148, -0.0271, 0.0457, 0.0523, -0.2369, 0.0018, 0.1326, -0.1164, 567, 154363, 0.0000, 0.0000, -0.0873, 0.0000
5.3020, 0.1863, 0.2452, -9.6596, 0.0180, -0.0148, -0.0271, 0.0430, 0.0538, -0.2375, 0.0013, 0.1279, -0.1190, 568, 154363, 0.0000, 0.0000, -0.0940, 0.0000
5.3220, 0.1863, 0.2452, -9.6596, 0.0180, -0.0148, -0.0271, 0.0406, 0.0554, -0.2382, 0.0008, 0.1224, -0.1212, 569, 154363, 0.0000, 0.0000, -0.1007, 0.0000
5.3420, 0.1863, 0.2452, -9.6596, 0.0180, -0.0148, -0.0271, 0.0381, 0.0570, -0.2388, -0.0000, 0.1174, -0.1226, 570, 154363, 0.0000, 0.0000, -0.1073, 0.0000
5.3620, 0.1863, 0.2452, -9.6596, 0.0180, -0.0148, -0.0271, 0.0357, 0.0586, -0.2396, -0.0004, 0.1126, -0.1249, 571, 154363, 0.0000, 0.0000, -0.1140, 0.0000
5.3820, 0.1863, 0.2452, -9.6596, 0.0180, -0.0148, -0.0271, 0.0332, 0.0599, -0.2402, -0.0005, 0.1082, -0.1273, 572, 154363, 0.0000, 0.0000, -0.1207, 0.0000
5.4020, 0.1863, 0.2452, -9.6596, 0.0180, -0.0148, -0.0271, 0.0308, 0.0613, -0.2409, -0.0010, 0.1035, -0.1304, 573, 154363, 0.0000, 0.0000, -0.1273, 0.0000
5.4220, 0.2746, 0.1079, -9.7282, -0.1841, -0.2107, 0.0105, 0.0286, 0.0627, -0.2416, -0.0009, 0.0997, -0.1328, 574, 155363, 0.0000, 0.0000, -0.1340, 0.0000
5.4420, 0.2746, 0.1079, -9.7282, -0.1841, -0.2107, 0.0105, 0.0263, 0.0640, -0.2423, -0.0016, 0.0958, -0.1352, 575, 155363, 0.0000, 0.0000, -0.1407, 0.0000
5.4620, 0.2746, 0.1079, -9.7282, -0.1841, -0.2107, 0.0105, 0.0241, 0.0653, -0.2432, -0.0015, 0.0928, -0.1371, 576, 155363, 0.0000, 0.0000, -0.1473, 0.0000
5.4820, 0.2746, 0.1079, -9.7282, -0.1841, -0.2107, 0.0105, 0.0222, 0.0664, -0.2438, -0.0014, 0.0896, -0.1384, 577, 155363, 0.0000, 0.0000, -0.1540, 0.0000
5.5020, 0.2746, 0.1079, -9.7282, -0.1841, -0.2107, 0.0105, 0.0203, 0.0674, -0.2447, -0.0010, 0.0882, -0.1395, 578, 155363, 0.0000, 0.0000, -0.1607, 0.0000
5.5220, 0.2746, 0.1079, -9.7282, -0.1841, -0.2107, 0.0105, 0.0186, 0.0685, -0.2455, -0.0004, 0.0862, -0.1410, 579, 155363, 0.0000, 0.0000, -0.1673, 0.0000
5.5420, 0.2746, 0.1079, -9.7282, -0.1841, -0.2107, 0.0105, 0.0171, 0.0692, -0.2463, -0.0005, 0.0842, -0.1426, 580, 155363, 0.0000, 0.0000, -0.1740, 0.0000
5.5620, 0.2746, 0.1079, -9.7282, -0.1841, -0.2107, 0.0105, 0.0156, 0.0701, -0.2472, -0.0001, 0.0822, -0.1435, 581, 155363, 0.0000, 0.0000, -0.1807, 0.0000
5.5820, 0.2746, 0.1079, -9.7282, -0.1841, -0.2107, 0.0105, 0.0143, 0.0709, -0.2481, -0.0001, 0.0803, -0.1442, 582, 155363, 0.0000, 0.0000, -0.1873, 0.0000
5.6020, 0.2746, 0.1079, -9.7282, -0.1841, -0.2107, 0.0105, 0.0133, 0.0714, -0.2490, 0.0005, 0.0789, -0.1441, 583, 155363, 0.0000, 0.0000, -0.1940, 0.0000
5.6220, 0.2746, 0.1079, -9.7282, -0.1841, -0.2107, 0.0105, 0.0122, 0.0718, -0.2501, 0.0007, 0.0767, -0.1454, 584, 155363, 0.0000, 0.0000, -0.2007, 0.0000
5.6420, 0.2746, 0.1079, -9.7282, -0.1841, -0.2107, 0.0105, 0.0115, 0.0720, -0.2510, 0.0011, 0.0759, -0.1465, 585, 155363, 0.0000, 0.0000, -0.2073, 0.0000
5.6620, 0.2746, 0.1079, -9.7282, -0.1841, -0.2107, 0.0105, 0.0109, 0.0723, -0.2520, 0.0020, 0.0758, -0.1479, 586, 155363, 0.0000, 0.0000, -0.2140, 0.0000
5.6820, 0.2746, 0.1079, -9.7282, -0.1841, -0.2107, 0.0105, 0.0104, 0.0724, -0.2531, 0.0024, 0.0761, -0.1487, 587, 155363, 0.0000, 0.0000, -0.2207, 0.0000
5.7020, 0.2746, 0.1079, -9.7282, -0.1841, -0.2107, 0.0105, 0.0101, 0.0723, -0.2543, 0.0033, 0.0764, -0.1484, 588, 155363, 0.0000, 0.0000, -0.2273, 0.0000
5.7220, 0.2746, 0.1079, -9.7282, -0.1841, -0.2107, 0.0105, 0.0100, 0.0722, -0.2555, 0.0042, 0.0771, -0.1486, 589, 155363, 0.0000, 0.0000, -0.2340, 0.0000
5.7420, 0.2746, 0.1079, -9.7282, -0.1841, -0.2107, 0.0105, 0.0102, 0.0719, -0.2569, 0.0046, 0.0750, -0.1504, 590, 155363, 0.0000, 0.0000, -0.2407, 0.0000
5.7620, 0.2746, 0.1079, -9.7282, -0.1841, -0.2107, 0.0105, 0.0105, 0.0713, -0.2583, 0.0049, 0.0733, -0.1521, 591, 155363, 0.0000, 0.0000, -0.2473, 0.0000
5.7820, 0.2746, 0.1079, -9.7282, -0.1841, -0.2107, 0.0105, 0.0111, 0.0708, -0.2596, 0.0055, 0.0724, -0.1519, 592, 155363, 0.0000, 0.0000, -0.2540, 0.0000
5.8020, 0.2746, 0.1079, -9.7282, -0.1841, -0.2107, 0.0105, 0.0118, 0.0703, -0.2610, 0.0063, 0.0723, -0.1498, 593, 155363, 0.0000, 0.0000, -0.2607, 0.0000
5.8220, 0.2746, 0.1079, -9.7282, -0.1841, -0.2107, 0.0105, 0.0127, 0.0696, -0.2624, 0.0072, 0.0736, -0.1472, 594, 155363, 0.0000, 0.0000, -0.2673, 0.0000
5.8420, 0.2746, 0.1079, -9.7282, -0.1841, -0.2107, 0.0105, 0.0139, 0.0688, -0.2641, 0.0084, 0.0738, -0.1458, 595, 155363, 0.0000, 0.0000, -0.2740, 0.0000
5.8620, 0.2746, 0.1079, -9.7282, -0.1841, -0.2107, 0.0105, 0.0149, 0.0677, -0.2656, 0.0092, 0.0751, -0.1444, 596, 155363, 0.0000, 0.0000, -0.2807, 0.0000
5.8820, 0.2746, 0.1079, -9.7282, -0.1841, -0.2107, 0.0105, 0.0163, 0.0667, -0.2673, 0.0099, 0.0770, -0.1436, 597, 155363, 0.0000, 0.0000, -0.2873, 0.0000
5.9020, 0.2746, 0.1079, -9.7282, -0.1841, -0.2107, 0.0105, 0.0180, 0.0655, -0.2691, 0.0107, 0.0782, -0.1423, 598, 155363, 0.0000, 0.0000, -0.2940, 0.0000
5.9220, 0.2746, 0.1079, -9.7282, -0.1841, -0.2107, 0.0105, 0.0198, 0.0641, -0.2710, 0.0117, 0.0799, -0.1418, 599, 155363, 0.0000, 0.0000, -0.3007, 0.0000
5.9420, 0.2746, 0.1079, -9.7282, -0.1841, -0.2107, 0.0105, 0.0216, 0.0629, -0.2730, 0.0125, 0.0816, -0.1398, 600, 155363, 0.0000, 0.0000, -0.3073, 0.0000
5.9620, 0.2746, 0.1079, -9.7282, -0.1841, -0.2107, 0.0105, 0.0236, 0.0614, -0.2750, 0.0135, 0.0836, -0.1376, 601, 155363, 0.0000, 0.0000, -0.3140, 0.0000
5.9820, 0.2746, 0.1079, -9.7282, -0.1841, -0.2107, 0.0105, 0.0258, 0.0599, -0.2774, 0.0142, 0.0854, -0.1363, 602, 155363, 0.0000, 0.0000, -0.3207, 0.0000
6.0030, 0.2746, 0.1079, -9.7282, -0.1841, -0.2107, 0.0105, 0.0280, 0.0582, -0.2797, 0.0148, 0.0877, -0.1346, 603, 155363, 0.0000, 0.0000, -0.3273, 0.0000
6.0230, 0.2746, 0.1079, -9.7282, -0.1841, -0.2107, 0.0105, 0.0305, 0.0565, -0.2821, 0.0159, 0.0903, -0.1329, 604, 155363, 0.0000, 0.0000, -0.3343, 0.0000
6.0430, 0.2746, 0.1079, -9.7282, -0.1841, -0.2107, 0.0105, 0.0330, 0.0547, -0.2847, 0.0165, 0.0927, -0.1312, 605, 155363, 0.0000, 0.0000, -0.3410, 0.0000
6.0630, 0.2746, 0.1079, -9.7282, -0.1841, -0.2107, 0.0105, 0.0356, 0.0530, -0.2873, 0.0175, 0.0956, -0.1293, 606, 155363, 0.0000, 0.0000, -0.3477, 0.0000
6.0830, 0.2746, 0.1079, -9.7282, -0.1841, -0.2107, 0.0105, 0.0383, 0.0512, -0.2902, 0.0183, 0.0981, -0.1275, 607, 155363, 0.0000, 0.0000, -0.3543, 0.0000
6.1030, 0.2746, 0.1079, -9.7282, -0.1841, -0.2107, 0.0105, 0.0411, 0.0494, -0.2931, 0.0183, 0.1003, -0.1247, 608, 155363, 0.0000, 0.0000, -0.3610, 0.0000
6.1230, 0.2746, 0.1079, -9.7282, -0.1841, -0.2107, 0.0105, 0.0440, 0.0474, -0.2962, 0.0192, 0.1020, -0.1225, 609, 155363, 0.0000, 0.0000, -0.3677, 0.0000
6.1430, 0.2746, 0.1079, -9.7282, -0.1841, -0.2107, 0.0105, 0.0470, 0.0455, -0.2994, 0.0197, 0.1042, -0.1200, 610, 155363, 0.0000, 0.0000, -0.3743, 0.0000
6.1630, 0.2746, 0.1079, -9.7282, -0.1841, -0.2107, 0.0105, 0.0501, 0.0437, -0.3025, 0.0199, 0.1061, -0.1183, 611, 155363, 0.0000, 0.0000, -0.3810, 0.0000
6.1830, 0.2746, 0.1079, -9.7282, -0.1841, -0.2107, 0.0105, 0.0531, 0.0416, -0.3059, 0.0210, 0.1086, -0.1163, 612, 155363, 0.0000, 0.0000, -0.3877, 0.0000
6.2030, 0.2746, 0.1079, -9.7282, -0.1841, -0.2107, 0.0105, 0.0562, 0.0397, -0.3091, 0.0216, 0.1112, -0.1145, 613, 155363, 0.0000, 0.0000, -0.3943, 0.0000
6.2230, 0.2746, 0.1079, -9.7282, -0.1841, -0.2107, 0.0105, 0.0593, 0.0379, -0.3126, 0.0217, 0.1136, -0.1118, 614, 155363, 0.0000, 0.0000, -0.4010, 0.0000
6.2430, 0.2746, 0.1079, -9.7282, -0.1841, -0.2107, 0.0105, 0.0623, 0.0360, -0.3160, 0.0221, 0.1158, -0.1101, 615, 155363, 0.0000, 0.0000, -0.4077, 0.0000
6.2630, 0.2746, 0.1079, -9.7282, -0.1841, -0.2107, 0.0105, 0.0655, 0.0340, -0.3193, 0.0229, 0.1184, -0.1081, 616, 155363, 0.0000, 0.0000, -0.4143, 0.0000
6.2830, 0.2746, 0.1079, -9.7282, -0.1841, -0.2107, 0.0105, 0.0686, 0.0321, -0.3229, 0.0232, 0.1213, -0.1073, 617, 155363, 0.0000, 0.0000, -0.4210, 0.0000
6.3030, 0.2746, 0.1079, -9.7282, -0.1841, -0.2107, 0.0105, 0.0717, 0.0302, -0.3263, 0.0238, 0.1246, -0.1060, 618, 155363, 0.0000, 0.0000, -0.4277, 0.0000
6.3230, 0.2746, 0.1079, -9.7282, -0.1841, -0.2107, 0.0105, 0.0748, 0.0284, -0.3297, 0.0244, 0.1267, -0.1058, 619, 155363, 0.0000, 0.0000, -0.4343, 0.0000
6.3430, 0.2746, 0.1079, -9.7282, -0.1841, -0.2107, 0.0105, 0.0779, 0.0266, -0.3332, 0.0245, 0.1287, -0.1047, 620, 155363, 0.0000, 0.0000, -0.4410, 0.0000
6.3630, 0.2746, 0.1079, -9.7282, -0.1841, -0.2107, 0.0105, 0.0809, 0.0249, -0.3367, 0.0245, 0.1298, -0.1028, 621, 155363, 0.0000, 0.0000, -0.4477, 0.0000
6.3830, 0.2746, 0.1079, -9.7282, -0.1841, -0.2107, 0.0105, 0.0837, 0.0234, -0.3402, 0.0246, 0.1315, -0.1008, 622, 155363, 0.0000, 0.0000, -0.4543, 0.0000
6.4030, 0.2746, 0.1079, -9.7282, -0.1841, -0.2107, 0.0105, 0.0867, 0.0218, -0.3438, 0.0245, 0.1330, -0.0994, 623, 155363, 0.0000, 0.0000, -0.4610, 0.0000
6.4230, 0.2746, 0.1079, -9.7282, -0.1841, -0.2107, 0.0105, 0.0896, 0.0203, -0.3472, 0.0247, 0.1347, -0.0984, 624, 155363, 0.0000, 0.0000, -0.4677, 0.0000
6.4430, 0.2746, 0.1079, -9.7282, -0.1841, -0.2107, 0.0105, 0.0922, 0.0189, -0.3508, 0.0247, 0.1368, -0.0969, 625, 155363, 0.0000, 0.0000, -0.4743, 0.0000
6.4630, 0.2746, 0.1079, -9.7282, -0.1841, -0.2107, 0.0105, 0.0950, 0.0176, -0.3544, 0.0250, 0.1379, -0.0958, 626, 155363, 0.0000, 0.0000, -0.4810, 0.0000
6.4830, 0.2746, 0.1079, -9.7282, -0.1841, -0.2107, 0.0105, 0.0975, 0.0164, -0.3577, 0.0247, 0.1410, -0.0945, 627, 155363, 0.0000, 0.0000, -0.4877, 0.0000
6.5030, 0.2746, 0.1079, -9.7282, -0.1841, -0.2107, 0.0105, 0.0998, 0.0152, -0.3610, 0.0246, 0.1447, -0.0920, 628, 155363, 0.0000, 0.0000, -0.4943, 0.0000
6.5230, 0.2746, 0.1079, -9.7282, -0.1841, -0.2107, 0.0105, 0.1022, 0.0142, -0.3643, 0.0244, 0.1474, -0.0902, 629, 155363, 0.0000, 0.0000, -0.5010, 0.0000
6.5430, 0.2746, 0.1079, -9.7282, -0.1841, -0.2107, 0.0105, 0.1046, 0.0131, -0.3675, 0.0245, 0.1480, -0.0900, 630, 155363, 0.0000, 0.0000, -0.5077, 0.0000
6.5630, 0.2746, 0.1079, -9.7282, -0.1841, -0.2107, 0.0105, 0.1068, 0.0122, -0.3709, 0.0242, 0.1492, -0.0902, 631, 155363, 0.0000, 0.0000, -0.5143, 0.0000
6.5830, 0.2746, 0.1079, -9.7282, -0.1841, -0.2107, 0.0105, 0.1090, 0.0114, -0.3743, 0.0240, 0.1499, -0.0904, 632, 155363, 0.0000, 0.0000, -0.5210, 0.0000
6.6030, 0.2746, 0.1079, -9.7282, -0.1841, -0.2107, 0.0105, 0.1110, 0.0107, -0.3776, 0.0240, 0.1505, -0.0905, 633, 155363, 0.0000, 0.0000, -0.5277, 0.0000
6.6230, 0.2746, 0.1079, -9.7282, -0.1841, -0.2107, 0.0105, 0.1128, 0.0101, -0.3808, 0.0237, 0.1525, -0.0899, 634, 155363, 0.0000, 0.0000, -0.5343, 0.0000
6.6430, 0.2746, 0.1079, -9.7282, -0.1841, -0.2107, 0.0105, 0.1145, 0.0097, -0.3839, 0.0236, 0.1552, -0.0877, 635, 155363, 0.0000, 0.0000, -0.5410, 0.0000
6.6630, 0.2746, 0.1079, -9.7282, -0.1841, -0.2107, 0.0105, 0.1160, 0.0094, -0.3871, 0.0232, 0.1558, -0.0861, 636, 155363, 0.0000, 0.0000, -0.5477, 0.0000
6.6830, 0.2746, 0.1079, -9.7282, -0.1841, -0.2107, 0.0105, 0.1175, 0.0091, -0.3901, 0.0228, 0.1562, -0.0851, 637, 155363, 0.0000, 0.0000, -0.5543, 0.0000
6.7030, 0.2746, 0.1079, -9.7282, -0.1841, -0.2107, 0.0105, 0.1190, 0.0091, -0.3933, 0.0220, 0.1557, -0.0843, 638, 155363, 0.0000, 0.0000, -0.5610, 0.0000
6.7230, 0.2746, 0.1079, -9.7282, -0.1841, -0.2107, 0.0105, 0.1202, 0.0090, -0.3965, 0.0215, 0.1550, -0.0845, 639, 155363, 0.0000, 0.0000, -0.5677, 0.0000
6.7430, 0.2746, 0.1079, -9.7282, -0.1841, -0.2107, 0.0105, 0.1213, 0.0090, -0.3996, 0.0208, 0.1547, -0.0847, 640, 155363, 0.0000, 0.0000, -0.5743, 0.0000
6.7630, 0.2746, 0.1079, -9.7282, -0.1841, -0.2107, 0.0105, 0.1223, 0.0093, -0.4028, 0.0202, 0.1545, -0.0837, 641, 155363, 0.0000, 0.0000, -0.5810, 0.0000
6.7830, 0.2746, 0.1079, -9.7282, -0.1841, -0.2107, 0.0105, 0.1231, 0.0096, -0.4059, 0.0199, 0.1537, -0.0840, 642, 155363, 0.0000, 0.0000, -0.5877, 0.0000
6.8030, 0.2746, 0.1079, -9.7282, -0.1841, -0.2107, 0.0105, 0.1239, 0.0100, -0.4091, 0.0193, 0.1538, -0.0834, 643, 155363, 0.0000, 0.0000, -0.5943, 0.0000
6.8230, 0.2746, 0.1079, -9.7282, -0.1841, -0.2107, 0.0105, 0.1245, 0.0107, -0.4118, 0.0189, 0.1544, -0.0836, 644, 155363, 0.0000, 0.0000, -0.6010, 0.0000
6.8430, 0.2746, 0.1079, -9.7282, -0.1841, -0.2107, 0.0105, 0.1250, 0.0113, -0.4147, 0.0187, 0.1548, -0.0850, 645, 155363, 0.0000, 0.0000, -0.6077, 0.0000
6.8630, 0.2746, 0.1079, -9.7282, -0.1841, -0.2107, 0.0105, 0.1253, 0.0120, -0.4175, 0.0183, 0.1552, -0.0866, 646, 155363, 0.0000, 0.0000, -0.6143, 0.0000
6.8830, 0.2746, 0.1079, -9.7282, -0.1841, -0.2107, 0.0105, 0.1255, 0.0128, -0.4202, 0.0182, 0.1552, -0.0879, 647, 155363, 0.0000, 0.0000, -0.6210, 0.0000
6.9030, 0.2746, 0.1079, -9.7282, -0.1841, -0.2107, 0.0105, 0.1257, 0.0138, -0.4230, 0.0176, 0.1545, -0.0899, 648, 155363, 0.0000, 0.0000, -0.6277, 0.0000
6.9230, 0.2746, 0.1079, -9.7282, -0.1841, -0.2107, 0.0105, 0.1256, 0.0148, -0.4258, 0.0175, 0.1548, -0.0911, 649, 155363, 0.0000, 0.0000, -0.6343, 0.0000
6.9430, 0.2746, 0.1079, -9.7282, -0.1841, -0.2107, 0.0105, 0.1255, 0.0159, -0.4286, 0.0172, 0.1552, -0.0930, 650, 155363, 0.0000, 0.0000, -0.6410, 0.0000
6.9630, 0.2746, 0.1079, -9.7282, -0.1841, -0.2107, 0.0105, 0.1252, 0.0171, -0.4314, 0.0169, 0.1545, -0.0947, 651, 155363, 0.0000, 0.0000, -0.6477, 0.0000
6.9830, 0.2746, 0.1079, -9.7282, -0.1841, -0.2107, 0.0105, 0.1249, 0.0184, -0.4343, 0.0164, 0.1542, -0.0957, 652, 155363, 0.0000, 0.0000, -0.6543, 0.0000
7.0030, 0.2746, 0.1079, -9.7282, -0.1841, -0.2107, 0.0105, 0.1244, 0.0198, -0.4372, 0.0160, 0.1529, -0.0970, 653, 155363, 0.0000, 0.0000, -0.6610, 0.0000
7.0230, 0.2746, 0.1079, -9.7282, -0.1841, -0.2107, 0.0105, 0.1239, 0.0212, -0.4402, 0.0161, 0.1513, -0.0994, 654, 155363, 0.0000, 0.0000, -0.6677, 0.0000
7.0430, 0.2746, 0.1079, -9.7282, -0.1841, -0.2107, 0.0105, 0.1232, 0.0226, -0.4433, 0.0155, 0.1513, -0.1004, 655, 155363, 0.0000, 0.0000, -0.6743, 0.0000
7.0630, 0.2746, 0.1079, -9.7282, -0.1841, -0.2107, 0.0105, 0.1223, 0.0242, -0.4464, 0.0153, 0.1503, -0.1022, 656, 155363, 0.0000, 0.0000, -0.6810, 0.0000
7.0830, 0.2746, 0.1079, -9.7282, -0.1841, -0.2107, 0.0105, 0.1216, 0.0256, -0.4496, 0.0148, 0.1482, -0.1036, 657, 155363, 0.0000, 0.0000, -0.6877, 0.0000
7.1030, 0.2746, 0.1079, -9.7282, -0.1841, -0.2107, 0.0105, 0.1207, 0.0272, -0.4527, 0.0146, 0.1463, -0.1061, 658, 155363, 0.0000, 0.0000, -0.6943, 0.0000
7.1230, 0.2746, 0.1079, -9.7282, -0.1841, -0.2107, 0.0105, 0.1197, 0.0289, -0.4561, 0.0142, 0.1451, -0.1070, 659, 155363, 0.0000, 0.0000, -0.7010, 0.0000
7.1430, 0.2746, 0.1079, -9.7282, -0.1841, -0.2107, 0.0105, 0.1186, 0.0305, -0.4595, 0.0139, 0.1434, -0.1083, 660, 155363, 0.0000, 0.0000, -0.7077, 0.0000
7.1630, 0.2746, 0.1079, -9.7282, -0.1841, -0.2107, 0.0105, 0.1175, 0.0322, -0.4628, 0.0136, 0.1415, -0.1098, 661, 155363, 0.0000, 0.0000, -0.7143, 0.0000
7.1830, 0.2746, 0.1079, -9.7282, -0.1841, -0.2107, 0.0105, 0.1163, 0.0338, -0.4664, 0.0136, 0.1402, -0.1117, 662, 155363, 0.0000, 0.0000, -0.7210, 0.0000
7.2030, 0.2746, 0.1079, -9.7282, -0.1841, -0.2107, 0.0105, 0.1150, 0.0355, -0.4699, 0.0133, 0.1392, -0.1125, 663, 155363, 0.0000, 0.0000, -0.7277, 0.0000
7.2230, 0.2746, 0.1079, -9.7282, -0.1841, -0.2107, 0.0105, 0.1137, 0.0372, -0.4736, 0.0129, 0.1373, -0.1135, 664, 155363, 0.0000, 0.0000, -0.7343, 0.0000
7.2430, 0.2746, 0.1079, -9.7282, -0.1841, -0.2107, 0.0105, 0.1124, 0.0389, -0.4772, 0.0130, 0.1361, -0.1144, 665, 155363, 0.0000, 0.0000, -0.7410, 0.0000
7.2630, 0.2746, 0.1079, -9.7282, -0.1841, -0.2107, 0.0105, 0.1112, 0.0407, -0.4809, 0.0126, 0.1344, -0.1156, 666, 155363, 0.0000, 0.0000, -0.7477, 0.0000
7.2830, 0.2746, 0.1079, -9.7282, -0.1841, -0.2107, 0.0105, 0.1098, 0.0424, -0.4849, 0.0123, 0.1332, -0.1160, 667, 155363, 0.0000, 0.0000, -0.7543, 0.0000
7.3030, 0.2746, 0.1079, -9.7282, -0.1841, -0.2107, 0.0105, 0.1083, 0.0440, -0.4887, 0.0127, 0.1324, -0.1176, 668, 155363, 0.0000, 0.0000, -0.7610, 0.0000
7.3230, 0.2746, 0.1079, -9.7282, -0.1841, -0.2107, 0.0105, 0.1070, 0.0457, -0.4928, 0.0123, 0.1310, -0.1187, 669, 155363, 0.0000, 0.0000, -0.7677, 0.0000
7.3430, 0.2746, 0.1079, -9.7282, -0.1841, -0.2107, 0.0105, 0.1055, 0.0473, -0.4967, 0.0122, 0.1296, -0.1194, 670, 155363, 0.0000, 0.0000, -0.7743, 0.0000
7.3630, 0.2746, 0.1079, -9.7282, -0.1841, -0.2107, 0.0105, 0.1041, 0.0490, -0.5009, 0.0121, 0.1281, -0.1201, 671, 155363, 0.0000, 0.0000, -0.7810, 0.0000
7.3830, 0.2746, 0.1079, -9.7282, -0.1841, -0.2107, 0.0105, 0.1027, 0.0507, -0.5051, 0.0120, 0.1267, -0.1207, 672, 155363, 0.0000, 0.0000, -0.7877, 0.0000
7.4030, 0.2746, 0.1079, -9.7282, -0.1841, -0.2107, 0.0105, 0.1014, 0.0522, -0.5092, 0.0121, 0.1253, -0.1215, 673, 155363, 0.0000, 0.0000, -0.7943, 0.0000
7.4230, 0.2746, 0.1079, -9.7282, -0.1841, -0.2107, 0.0105, 0.1000, 0.0538, -0.5136, 0.0118, 0.1240, -0.1222, 674, 155363, 0.0000, 0.0000, -0.8010, 0.0000
7.4430, 0.2746, 0.1079, -9.7282, -0.1841, -0.2107, 0.0105, 0.0986, 0.0554, -0.5179, 0.0119, 0.1229, -0.1222, 675, 155363, 0.0000, 0.0000, -0.8077, 0.0000
7.4630, 0.2746, 0.1079, -9.7282, -0.1841, -0.2107, 0.0105, 0.0972, 0.0568, -0.5223, 0.0117, 0.1213, -0.1230, 676, 155363, 0.0000, 0.0000, -0.8143, 0.0000
7.4830, 0.2746, 0.1079, -9.7282, -0.1841, -0.2107, 0.0105, 0.0959, 0.0582, -0.5266, 0.0115, 0.1202, -0.1232, 677, 155363, 0.0000, 0.0000, -0.8210, 0.0000
7.5030, 0.2746, 0.1079, -9.7282, -0.1841, -0.2107, 0.0105, 0.0947, 0.0598, -0.5310, 0.0116, 0.1193, -0.1233, 678, 155363, 0.0000, 0.0000, -0.8277, 0.0000
7.5230, 0.2746, 0.1079, -9.7282, -0.1841, -0.2107, 0.0105, 0.0934, 0.0612, -0.5354, 0.0114, 0.1189, -0.1228, 679, 155363, 0.0000, 0.0000, -0.8343, 0.0000
7.5430, 0.2746, 0.1079, -9.7282, -0.1841, -0.2107, 0.0105, 0.0920, 0.0626, -0.5398, 0.0114, 0.1181, -0.1226, 680, 155363, 0.0000, 0.0000, -0.8410, 0.0000
7.5630, 0.2746, 0.1079, -9.7282, -0.1841, -0.2107, 0.0105, 0.0911, 0.0639, -0.5443, 0.0116, 0.1165, -0.1229, 681, 155363, 0.0000, 0.0000, -0.8477, 0.0000
7.5830, 0.2746, 0.1079, -9.7282, -0.1841, -0.2107, 0.0105, 0.0899, 0.0653, -0.5486, 0.0109, 0.1154, -0.1231, 682, 155363, 0.0000, 0.0000, -0.8543, 0.0000
7.6030, 0.2746, 0.1079, -9.7282, -0.1841, -0.2107, 0.0105, 0.0889, 0.0666, -0.5532, 0.0110, 0.1140, -0.1223, 683, 155363, 0.0000, 0.0000, -0.8610, 0.0000
7.6230, 0.2746, 0.1079, -9.7282, -0.1841, -0.2107, 0.0105, 0.0879, 0.0677, -0.5577, 0.0108, 0.1132, -0.1231, 684, 155363, 0.0000, 0.0000, -0.8677, 0.0000
7.6430, 0.2746, 0.1079, -9.7282, -0.1841, -0.2107, 0.0105, 0.0869, 0.0690, -0.5622, 0.0108, 0.1126, -0.1228, 685, 155363, 0.0000, 0.0000, -0.8743, 0.0000
7.6630, 0.2746, 0.1079, -9.7282, -0.1841, -0.2107, 0.0105, 0.0861, 0.0702, -0.5669, 0.0112, 0.1120, -0.1230, 686, 155363, 0.0000, 0.0000, -0.8810, 0.0000
7.6830, 0.2746, 0.1079, -9.7282, -0.1841, -0.2107, 0.0105, 0.0851, 0.0714, -0.5715, 0.0110, 0.1113, -0.1234, 687, 155363, 0.0000, 0.0000, -0.8877, 0.0000
7.7030, 0.2746, 0.1079, -9.7282, -0.1841, -0.2107, 0.0105, 0.0845, 0.0725, -0.5763, 0.0108, 0.1099, -0.1239, 688, 155363, 0.0000, 0.0000, -0.8943, 0.0000
7.7230, 0.2746, 0.1079, -9.7282, -0.1841, -0.2107, 0.0105, 0.0837, 0.0735, -0.5809, 0.0109, 0.1094, -0.1237, 689, 155363, 0.0000, 0.0000, -0.9010, 0.0000
7.7430, 0.2746, 0.1079, -9.7282, -0.1841, -0.2107, 0.0105, 0.0831, 0.0746, -0.5856, 0.0113, 0.1089, -0.1242, 690, 155363, 0.0000, 0.0000, -0.9077, 0.0000
7.7630, 0.2746, 0.1079, -9.7282, -0.1841, -0.2107, 0.0105, 0.0825, 0.0756, -0.5906, 0.0110, 0.1081, -0.1236, 691, 155363, 0.0000, 0.0000, -0.9143, 0.0000
7.7830, 0.2746, 0.1079, -9.7282, -0.1841, -0.2107, 0.0105, 0.0821, 0.0767, -0.5952, 0.0110, 0.1075, -0.1242, 692, 155363, 0.0000, 0.0000, -0.9210, 0.0000
7.8030, 0.2746, 0.1079, -9.7282, -0.1841, -0.2107, 0.0105, 0.0818, 0.0777, -0.6003, 0.0114, 0.1073, -0.1246, 693, 155363, 0.0000, 0.0000, -0.9277, 0.0000
7.8230, 0.2746, 0.1079, -9.7282, -0.1841, -0.2107, 0.0105, 0.0814, 0.0786, -0.6051, 0.0113, 0.1068, -0.1244, 694, 155363, 0.0000, 0.0000, -0.9343, 0.0000
7.8430, 0.2746, 0.1079, -9.7282, -0.1841, -0.2107, 0.0105, 0.0811, 0.0795, -0.6102, 0.0113, 0.1067, -0.1239, 695, 155363, 0.0000, 0.0000, -0.9410, 0.0000
7.8630, 0.2746, 0.1079, -9.7282, -0.1841, -0.2107, 0.0105, 0.0811, 0.0805, -0.6153, 0.0118, 0.1065, -0.1240, 696, 155363, 0.0000, 0.0000, -0.9477, 0.0000
7.8830, 0.2746, 0.1079, -9.7282, -0.1841, -0.2107, 0.0105, 0.0810, 0.0813, -0.6203, 0.0120, 0.1068, -0.1242, 697, 155363, 0.0000, 0.0000, -0.9543, 0.0000
7.9030, 0.2746, 0.1079, -9.7282, -0.1841, -0.2107, 0.0105, 0.0810, 0.0820, -0.6252, 0.0120, 0.1071, -0.1241, 698, 155363, 0.0000, 0.0000, -0.9610, 0.0000
7.9230, 0.2746, 0.1079, -9.7282, -0.1841, -0.2107, 0.0105, 0.0810, 0.0828, -0.6297, 0.0124, 0.1070, -0.1261, 699, 155363, 0.0000, 0.0000, -0.9677, 0.0000
7.9430, 0.2746, 0.1079, -9.7282, -0.1841, -0.2107, 0.0105, 0.0813, 0.0835, -0.6341, 0.0125, 0.1072, -0.1270, 700, 155363, 0.0000, 0.0000, -0.9743, 0.0000
7.9630, 0.2746, 0.1079, -9.7282, -0.1841, -0.2107, 0.0105, 0.0814, 0.0842, -0.6384, 0.0126, 0.1079, -0.1266, 701, 155363, 0.0000, 0.0000, -0.9810, 0.0000
7.9830, 0.2746, 0.1079, -9.7282, -0.1841, -0.2107, 0.0105, 0.0816, 0.0849, -0.6427, 0.0127, 0.1084, -0.1273, 702, 155363, 0.0000, 0.0000, -0.9877, 0.0000
8.0060, 0.2746, 0.1079, -9.7282, -0.1841, -0.2107, 0.0105, 0.0821, 0.0855, -0.6469, 0.0129, 0.1091, -0.1269, 703, 155363, 0.0000, 0.0000, -0.9943, 0.0000
8.0260, 0.2746, 0.1079, -9.7282, -0.1841, -0.2107, 0.0105, 0.0825, 0.0862, -0.6510, 0.0134, 0.1095, -0.1275, 704, 155363, 0.0000, 0.0000, -1.0000, 0.0000
8.0460, 0.2746, 0.1079, -9.7282, -0.1841, -0.2107, 0.0105, 0.0829, 0.0868, -0.6551, 0.0134, 0.1109, -0.1269, 705, 155363, 0.0000, 0.0000, -1.0000, 0.0000
8.0660, 0.2746, 0.1079, -9.7282, -0.1841, -0.2107, 0.0105, 0.0834, 0.0873, -0.6593, 0.0137, 0.1121, -0.1266, 706, 155363, 0.0000, 0.0000, -1.0000, 0.0000
8.0860, 0.2746, 0.1079, -9.7282, -0.1841, -0.2107, 0.0105, 0.0840, 0.0878, -0.6634, 0.0142, 0.1130, -0.1269, 707, 155363, 0.0000, 0.0000, -1.0000, 0.0000
8.1060, 0.2746, 0.1079, -9.7282, -0.1841, -0.2107, 0.0105, 0.0848, 0.0882, -0.6675, 0.0145, 0.1134, -0.1270, 708, 155363, 0.0000, 0.0000, -1.0000, 0.0000
8.1260, 0.2746, 0.1079, -9.7282, -0.1841, -0.2107, 0.0105, 0.0855, 0.0886, -0.6717, 0.0147, 0.1142, -0.1273, 709, 155363, 0.0000, 0.0000, -1.0000, 0.0000
8.1460, 0.2746, 0.1079, -9.7282, -0.1841, -0.2107, 0.0105, 0.0862, 0.0890, -0.6759, 0.0149, 0.1150, -0.1265, 710, 155363, 0.0000, 0.0000, -1.0000, 0.0000
8.1660, 0.2746, 0.1079, -9.7282, -0.1841, -0.2107, 0.0105, 0.0870, 0.0894, -0.6801, 0.0154, 0.1158, -0.1265, 711, 155363, 0.0000, 0.0000, -1.0000, 0.0000
8.1860, 0.2746, 0.1079, -9.7282, -0.1841, -0.2107, 0.0105, 0.0879, 0.0897, -0.6844, 0.0154, 0.1168, -0.1260, 712, 155363, 0.0000, 0.0000, -1.0000, 0.0000
8.2060, 0.2746, 0.1079, -9.7282, -0.1841, -0.2107, 0.0105, 0.0887, 0.0899, -0.6885, 0.0155, 0.1176, -0.1254, 713, 155363, 0.0000, 0.0000, -1.0000, 0.0000
8.2260, 0.2746, 0.1079, -9.7282, -0.1841, -0.2107, 0.0105, 0.0897, 0.0902, -0.6928, 0.0159, 0.1187, -0.1250, 714, 155363, 0.0000, 0.0000, -1.0000, 0.0000
8.2460, 0.2746, 0.1079, -9.7282, -0.1841, -0.2107, 0.0105, 0.0906, 0.0903, -0.6969, 0.0158, 0.1194, -0.1248, 715, 155363, 0.0000, 0.0000, -1.0000, 0.0000
8.2660, 0.2746, 0.1079, -9.7282, -0.1841, -0.2107, 0.0105, 0.0915, 0.0905, -0.7010, 0.0161, 0.1204, -0.1248, 716, 155363, 0.0000, 0.0000, -1.0000, 0.0000
8.2860, 0.2746, 0.1079, -9.7282, -0.1841, -0.2107, 0.0105, 0.0926, 0.0908, -0.7053, 0.0165, 0.1212, -0.1243, 717, 155363, 0.0000, 0.0000, -1.0000, 0.0000
8.3060, 0.2746, 0.1079, -9.7282, -0.1841, -0.2107, 0.0105, 0.0935, 0.0907, -0.7093, 0.0166, 0.1217, -0.1239, 718, 155363, 0.0000, 0.0000, -1.0000, 0.0000
8.3260, 0.2746, 0.1079, -9.7282, -0.1841, -0.2107, 0.0105, 0.0946, 0.0909, -0.7136, 0.0166, 0.1225, -0.1234, 719, 155363, 0.0000, 0.0000, -1.0000, 0.0000
8.3460, 0.2746, 0.1079, -9.7282, -0.1841, -0.2107, 0.0105, 0.0957, 0.0910, -0.7178, 0.0172, 0.1229, -0.1231, 720, 155363, 0.0000, 0.0000, -1.0000, 0.0000
8.3660, 0.2746, 0.1079, -9.7282, -0.1841, -0.2107, 0.0105, 0.0967, 0.0910, -0.7219, 0.0176, 0.1237, -0.1231, 721, 155363, 0.0000, 0.0000, -1.0000, 0.0000
8.3860, 0.2746, 0.1079, -9.7282, -0.1841, -0.2107, 0.0105, 0.0978, 0.0911, -0.7261, 0.0178, 0.1246, -0.1227, 722, 155363, 0.0000, 0.0000, -1.0000, 0.0000
8.4060, 0.2746, 0.1079, -9.7282, -0.1841, -0.2107, 0.0105, 0.0988, 0.0910, -0.7302, 0.0180, 0.1252, -0.1222, 723, 155363, 0.0000, 0.0000, -1.0000, 0.0000
8.4260, 0.2746, 0.1079, -9.7282, -0.1841, -0.2107, 0.0105, 0.0999, 0.0911, -0.7345, 0.0181, 0.1257, -0.1207, 724, 155363, 0.0000, 0.0000, -1.0000, 0.0000
8.4460, 0.2746, 0.1079, -9.7282, -0.1841, -0.2107, 0.0105, 0.1009, 0.0910, -0.7384, 0.0182, 0.1261, -0.1202, 725, 155363, 0.0000, 0.0000, -1.0000, 0.0000
8.4660, 0.2746, 0.1079, -9.7282, -0.1841, -0.2107, 0.0105, 0.1019, 0.0910, -0.7426, 0.0186, 0.1269, -0.1199, 726, 155363, 0.0000, 0.0000, -1.0000, 0.0000
8.4860, 0.2746, 0.1079, -9.7282, -0.1841, -0.2107, 0.0105, 0.1030, 0.0910, -0.7467, 0.0188, 0.1279, -0.1188, 727, 155363, 0.0000, 0.0000, -1.0000, 0.0000
8.5060, 0.2746, 0.1079, -9.7282, -0.1841, -0.2107, 0.0105, 0.1040, 0.0910, -0.7508, 0.0188, 0.1290, -0.1184, 728, 155363, 0.0000, 0.0000, -1.0000, 0.0000
8.5260, 0.2746, 0.1079, -9.7282, -0.1841, -0.2107, 0.0105, 0.1049, 0.0909, -0.7549, 0.0193, 0.1304, -0.1178, 729, 155363, 0.0000, 0.0000, -1.0000, 0.0000
8.5460, 0.2746, 0.1079, -9.7282, -0.1841, -0.2107, 0.0105, 0.1059, 0.0909, -0.7588, 0.0194, 0.1310, -0.1170, 730, 155363, 0.0000, 0.0000, -1.0000, 0.0000
8.5660, 0.2746, 0.1079, -9.7282, -0.1841, -0.2107, 0.0105, 0.1070, 0.0909, -0.7628, 0.0193, 0.1310, -0.1162, 731, 155363, 0.0000, 0.0000, -1.0000, 0.0000
8.5860, 0.2746, 0.1079, -9.7282, -0.1841, -0.2107, 0.0105, 0.1078, 0.0909, -0.7667, 0.0193, 0.1316, -0.1148, 732, 155363, 0.0000, 0.0000, -1.0000, 0.0000
8.6060, 0.2746, 0.1079, -9.7282, -0.1841, -0.2107, 0.0105, 0.1088, 0.0908, -0.7706, 0.0194, 0.1320, -0.1144, 733, 155363, 0.0000, 0.0000, -1.0000, 0.0000
8.6260, 0.2746, 0.1079, -9.7282, -0.1841, -0.2107, 0.0105, 0.1097, 0.0909, -0.7747, 0.0192, 0.1321, -0.1135, 734, 155363, 0.0000, 0.0000, -1.0000, 0.0000
8.6460, 0.2746, 0.1079, -9.7282, -0.1841, -0.2107, 0.0105, 0.1105, 0.0909, -0.7783, 0.0194, 0.1322, -0.1135, 735, 155363, 0.0000, 0.0000, -1.0000, 0.0000
8.6660, 0.2746, 0.1079, -9.7282, -0.1841, -0.2107, 0.0105, 0.1114, 0.0909, -0.7823, 0.0193, 0.1333, -0.1127, 736, 155363, 0.0000, 0.0000, -1.0000, 0.0000
8.6860, 0.2746, 0.1079, -9.7282, -0.1841, -0.2107, 0.0105, 0.1122, 0.0909, -0.7861, 0.0193, 0.1339, -0.1127, 737, 155363, 0.0000, 0.0000, -1.0000, 0.0000
8.7060, 0.2746, 0.1079, -9.7282, -0.1841, -0.2107, 0.0105, 0.1130, 0.0911, -0.7899, 0.0195, 0.1352, -0.1122, 738, 155363, 0.0000, 0.0000, -1.0000, 0.0000
8.7260, 0.2746, 0.1079, -9.7282, -0.1841, -0.2107, 0.0105, 0.1137, 0.0911, -0.7936, 0.0195, 0.1360, -0.1117, 739, 155363, 0.0000, 0.0000, -1.0000, 0.0000
8.7460, 0.2746, 0.1079, -9.7282, -0.1841, -0.2107, 0.0105, 0.1144, 0.0912, -0.7974, 0.0196, 0.1368, -0.1118, 740, 155363, 0.0000, 0.0000, -1.0000, 0.0000
8.7660, 0.2746, 0.1079, -9.7282, -0.1841, -0.2107, 0.0105, 0.1150, 0.0914, -0.8012, 0.0194, 0.1368, -0.1120, 741, 155363, 0.0000, 0.0000, -1.0000, 0.0000
8.7860, 0.2746, 0.1079, -9.7282, -0.1841, -0.2107, 0.0105, 0.1157, 0.0915, -0.8048, 0.0192, 0.1362, -0.1121, 742, 155363, 0.0000, 0.0000, -1.0000, 0.0000
8.8060, 0.2746, 0.1079, -9.7282, -0.1841, -0.2107, 0.0105, 0.1163, 0.0916, -0.8086, 0.0193, 0.1368, -0.1118, 743, 155363, 0.0000, 0.0000, -1.0000, 0.0000
8.8260, 0.2746, 0.1079, -9.7282, -0.1841, -0.2107, 0.0105, 0.1167, 0.0919, -0.8122, 0.0194, 0.1379, -0.1120, 744, 155363, 0.0000, 0.0000, -1.0000, 0.0000
8.8460, 0.2746, 0.1079, -9.7282, -0.1841, -0.2107, 0.0105, 0.1172, 0.0921, -0.8159, 0.0193, 0.1380, -0.1117, 745, 155363, 0.0000, 0.0000, -1.0000, 0.0000
8.8660, 0.2746, 0.1079, -9.7282, -0.1841, -0.2107, 0.0105, 0.1177, 0.0924, -0.8194, 0.0192, 0.1385, -0.1115, 746, 155363, 0.0000, 0.0000, -1.0000, 0.0000
8.8860, 0.2746, 0.1079, -9.7282, -0.1841, -0.2107, 0.0105, 0.1180, 0.0926, -0.8230, 0.0191, 0.1384, -0.1117, 747, 155363, 0.0000, 0.0000, -1.0000, 0.0000
8.9060, 0.2746, 0.1079, -9.7282, -0.1841, -0.2107, 0.0105, 0.1185, 0.0929, -0.8266, 0.0191, 0.1385, -0.1120, 748, 155363, 0.0000, 0.0000, -1.0000, 0.0000
8.9260, 0.2746, 0.1079, -9.7282, -0.1841, -0.2107, 0.0105, 0.1187, 0.0931, -0.8299, 0.0191, 0.1384, -0.1123, 749, 155363, 0.0000, 0.0000, -1.0000, 0.0000
8.9460, 0.2746, 0.1079, -9.7282, -0.1841, -0.2107, 0.0105, 0.1190, 0.0934, -0.8334, 0.0188, 0.1385, -0.1125, 750, 155363, 0.0000, 0.0000, -1.0000, 0.0000
8.9660, 0.2746, 0.1079, -9.7282, -0.1841, -0.2107, 0.0105, 0.1191, 0.0938, -0.8367, 0.0185, 0.1386, -0.1121, 751, 155363, 0.0000, 0.0000, -1.0000, 0.0000
8.9860, 0.2746, 0.1079, -9.7282, -0.1841, -0.2107, 0.0105, 0.1192, 0.0941, -0.8400, 0.0184, 0.1393, -0.1121, 752, 155363, 0.0000, 0.0000, -1.0000, 0.0000
9.0060, 0.2746, 0.1079, -9.7282, -0.1841, -0.2107, 0.0105, 0.1193, 0.0945, -0.8434, 0.0185, 0.1399, -0.1126, 753, 155363, 0.0000, 0.0000, -1.0000, 0.0000
9.0260, 0.2746, 0.1079, -9.7282, -0.1841, -0.2107, 0.0105, 0.1193, 0.0948, -0.8465, 0.0182, 0.1399, -0.1128, 754, 155363, 0.0000, 0.0000, -1.0000, 0.0000
9.0460, 0.2746, 0.1079, -9.7282, -0.1841, -0.2107, 0.0105, 0.1194, 0.0952, -0.8498, 0.0182, 0.1395, -0.1132, 755, 155363, 0.0000, 0.0000, -1.0000, 0.0000
9.0660, 0.2746, 0.1079, -9.7282, -0.1841, -0.2107, 0.0105, 0.1193, 0.0956, -0.8529, 0.0178, 0.1396, -0.1133, 756, 155363, 0.0000, 0.0000, -1.0000, 0.0000
9.0860, 0.2746, 0.1079, -9.7282, -0.1841, -0.2107, 0.0105, 0.1192, 0.0959, -0.8561, 0.0176, 0.1394, -0.1135, 757, 155363, 0.0000, 0.0000, -1.0000, 0.0000
9.1060, 0.2746, 0.1079, -9.7282, -0.1841, -0.2107, 0.0105, 0.1190, 0.0963, -0.8592, 0.0175, 0.1398, -0.1141, 758, 155363, 0.0000, 0.0000, -1.0000, 0.0000
9.1260, 0.2746, 0.1079, -9.7282, -0.1841, -0.2107, 0.0105, 0.1188, 0.0967, -0.8622, 0.0175, 0.1399, -0.1143, 759, 155363, 0.0000, 0.0000, -1.0000, 0.0000
9.1460, 0.2746, 0.1079, -9.7282, -0.1841, -0.2107, 0.0105, 0.1184, 0.0972, -0.8654, 0.0172, 0.1404, -0.1144, 760, 155363, 0.0000, 0.0000, -1.0000, 0.0000
9.1680, 0.2746, 0.1079, -9.7282, -0.1841, -0.2107, 0.0105, 0.1182, 0.0976, -0.8682, 0.0170, 0.1402, -0.1145, 761, 155363, 0.0000, 0.0000, -1.0000, 0.0000
9.1880, 0.2746, 0.1079, -9.7282, -0.1841, -0.2107, 0.0105, 0.1178, 0.0981, -0.8713, 0.0166, 0.1400, -0.1142, 762, 155363, 0.0000, 0.0000, -1.0000, 0.0000
9.2080, 0.2746, 0.1079, -9.7282, -0.1841, -0.2107, 0.0105, 0.1173, 0.0985, -0.8741, 0.0166, 0.1401, -0.1148, 763, 155363, 0.0000, 0.0000, -1.0000, 0.0000
9.2280, 0.2746, 0.1079, -9.7282, -0.1841, -0.2107, 0.0105, 0.1169, 0.0989, -0.8769, 0.0162, 0.1396, -0.1148, 764, 155363, 0.0000, 0.0000, -1.0000, 0.0000
9.2470, 0.2746, 0.1079, -9.7282, -0.1841, -0.2107, 0.0105, 0.1163, 0.0994, -0.8797, 0.0160, 0.1393, -0.1149, 765, 155363, 0.0000, 0.0000, -1.0000, 0.0000
9.2680, 0.2746, 0.1079, -9.7282, -0.1841, -0.2107, 0.0105, 0.1158, 0.0999, -0.8821, 0.0158, 0.1393, -0.1146, 766, 155363, 0.0000, 0.0000, -1.0000, 0.0000
9.2880, 0.2746, 0.1079, -9.7282, -0.1841, -0.2107, 0.0105, 0.1152, 0.1003, -0.8841, 0.0157, 0.1391, -0.1138, 767, 155363, 0.0000, 0.0000, -1.0000, 0.0000
9.3080, 0.2746, 0.1079, -9.7282, -0.1841, -0.2107, 0.0105, 0.1146, 0.1007, -0.8856, 0.0154, 0.1388, -0.1141, 768, 155363, 0.0000, 0.0000, -1.0000, 0.0000
9.3280, 0.2746, 0.1079, -9.7282, -0.1841, -0.2107, 0.0105, 0.1140, 0.1013, -0.8870, 0.0152, 0.1379, -0.1144, 769, 155363, 0.0000, 0.0000, -1.0000, 0.0000
9.3470, 0.2746, 0.1079, -9.7282, -0.1841, -0.2107, 0.0105, 0.1132, 0.1016, -0.8881, 0.0153, 0.1377, -0.1149, 770, 155363, 0.0000, 0.0000, -1.0000, 0.0000
9.3680, 0.2746, 0.1079, -9.7282, -0.1841, -0.2107, 0.0105, 0.1125, 0.1022, -0.8891, 0.0148, 0.1369, -0.1156, 771, 155363, 0.0000, 0.0000, -1.0000, 0.0000
9.3870, 0.2746, 0.1079, -9.7282, -0.1841, -0.2107, 0.0105, 0.1117, 0.1026, -0.8900, 0.0145, 0.1359, -0.1159, 772, 155363, 0.0000, 0.0000, -1.0000, 0.0000
9.4080, 0.2746, 0.1079, -9.7282, -0.1841, -0.2107, 0.0105, 0.1109, 0.1031, -0.8906, 0.0145, 0.1351, -0.1161, 773, 155363, 0.0000, 0.0000, -1.0000, 0.0000
9.4270, 0.2746, 0.1079, -9.7282, -0.1841, -0.2107, 0.0105, 0.1102, 0.1036, -0.8915, 0.0142, 0.1347, -0.1159, 774, 155363, 0.0000, 0.0000, -1.0000, 0.0000
9.4470, 0.2746, 0.1079, -9.7282, -0.1841, -0.2107, 0.0105, 0.1093, 0.1040, -0.8919, 0.0142, 0.1338, -0.1164, 775, 155363, 0.0000, 0.0000, -1.0000, 0.0000
9.4680, 0.2746, 0.1079, -9.7282, -0.1841, -0.2107, 0.0105, 0.1085, 0.1046, -0.8925, 0.0139, 0.1326, -0.1164, 776, 155363, 0.0000, 0.0000, -1.0000, 0.0000
9.4880, 0.2746, 0.1079, -9.7282, -0.1841, -0.2107, 0.0105, 0.1076, 0.1050, -0.8930, 0.0136, 0.1311, -0.1172, 777, 155363, 0.0000, 0.0000, -1.0000, 0.0000
9.5080, 0.2746, 0.1079, -9.7282, -0.1841, -0.2107, 0.0105, 0.1066, 0.1054, -0.8932, 0.0135, 0.1300, -0.1181, 778, 155363, 0.0000, 0.0000, -1.0000, 0.0000
9.5280, 0.2746, 0.1079, -9.7282, -0.1841, -0.2107, 0.0105, 0.1058, 0.1058, -0.8937, 0.0133, 0.1296, -0.1183, 779, 155363, 0.0000, 0.0000, -1.0000, 0.0000
9.5470, 0.2746, 0.1079, -9.7282, -0.1841, -0.2107, 0.0105, 0.1049, 0.1063, -0.8938, 0.0133, 0.1292, -0.1188, 780, 155363, 0.0000, 0.0000, -1.0000, 0.0000
9.5680, 0.2746, 0.1079, -9.7282, -0.1841, -0.2107, 0.0105, 0.1039, 0.1068, -0.8943, 0.0133, 0.1291, -0.1185, 781, 155363, 0.0000, 0.0000, -1.0000, 0.0000
9.5870, 0.2746, 0.1079, -9.7282, -0.1841, -0.2107, 0.0105, 0.1031, 0.1073, -0.8945, 0.0132, 0.1280, -0.1184, 782, 155363, 0.0000, 0.0000, -1.0000, 0.0000
9.6080, 0.2746, 0.1079, -9.7282, -0.1841, -0.2107, 0.0105, 0.1022, 0.1077, -0.8948, 0.0127, 0.1260, -0.1187, 783, 155363, 0.0000, 0.0000, -1.0000, 0.0000
9.6280, 0.2746, 0.1079, -9.7282, -0.1841, -0.2107, 0.0105, 0.1013, 0.1081, -0.8952, 0.0127, 0.1241, -0.1196, 784, 155363, 0.0000, 0.0000, -1.0000, 0.0000
9.6470, 0.2746, 0.1079, -9.7282, -0.1841, -0.2107, 0.0105, 0.1005, 0.1084, -0.8954, 0.0126, 0.1225, -0.1201, 785, 155363, 0.0000, 0.0000, -1.0000, 0.0000
9.6680, 0.2746, 0.1079, -9.7282, -0.1841, -0.2107, 0.0105, 0.0997, 0.1088, -0.8958, 0.0126, 0.1213, -0.1201, 786, 155363, 0.0000, 0.0000, -1.0000, 0.0000
9.6880, 0.2746, 0.1079, -9.7282, -0.1841, -0.2107, 0.0105, 0.0988, 0.1092, -0.8960, 0.0128, 0.1206, -0.1193, 787, 155363, 0.0000, 0.0000, -1.0000, 0.0000
9.7080, 0.2746, 0.1079, -9.7282, -0.1841, -0.2107, 0.0105, 0.0980, 0.1096, -0.8964, 0.0128, 0.1198, -0.1191, 788, 155363, 0.0000, 0.0000, -1.0000, 0.0000
9.7280, 0.2746, 0.1079, -9.7282, -0.1841, -0.2107, 0.0105, 0.0972, 0.1100, -0.8968, 0.0129, 0.1191, -0.1196, 789, 155363, 0.0000, 0.0000, -1.0000, 0.0000
9.7470, 0.2746, 0.1079, -9.7282, -0.1841, -0.2107, 0.0105, 0.0964, 0.1102, -0.8971, 0.0130, 0.1188, -0.1190, 790, 155363, 0.0000, 0.0000, -1.0000, 0.0000
9.7680, 0.2746, 0.1079, -9.7282, -0.1841, -0.2107, 0.0105, 0.0957, 0.1106, -0.8976, 0.0132, 0.1188, -0.1192, 791, 155363, 0.0000, 0.0000, -1.0000, 0.0000
9.7880, 0.2746, 0.1079, -9.7282, -0.1841, -0.2107, 0.0105, 0.0950, 0.1109, -0.8981, 0.0132, 0.1181, -0.1194, 792, 155363, 0.0000, 0.0000, -1.0000, 0.0000
9.8080, 0.2746, 0.1079, -9.7282, -0.1841, -0.2107, 0.0105, 0.0944, 0.1112, -0.8985, 0.0132, 0.1179, -0.1189, 793, 155363, 0.0000, 0.0000, -1.0000, 0.0000
9.8280, 0.2746, 0.1079, -9.7282, -0.1841, -0.2107, 0.0105, 0.0937, 0.1115, -0.8991, 0.0133, 0.1179, -0.1188, 794, 155363, 0.0000, 0.0000, -1.0000, 0.0000
9.8470, 0.2746, 0.1079, -9.7282, -0.1841, -0.2107, 0.0105, 0.0932, 0.1118, -0.8996, 0.0133, 0.1176, -0.1184, 795, 155363, 0.0000, 0.0000, -1.0000, 0.0000
9.8680, 0.2746, 0.1079, -9.7282, -0.1841, -0.2107, 0.0105, 0.0927, 0.1120, -0.9002, 0.0137, 0.1174, -0.1188, 796, 155363, 0.0000, 0.0000, -1.0000, 0.0000
9.8880, 0.2746, 0.1079, -9.7282, -0.1841, -0.2107, 0.0105, 0.0921, 0.1123, -0.9007, 0.0136, 0.1171, -0.1186, 797, 155363, 0.0000, 0.0000, -1.0000, 0.0000
9.9080, 0.2746, 0.1079, -9.7282, -0.1841, -0.2107, 0.0105, 0.0917, 0.1125, -0.9015, 0.0136, 0.1178, -0.1180, 798, 155363, 0.0000, 0.0000, -1.0000, 0.0000
9.9280, 0.2746, 0.1079, -9.7282, -0.1841, -0.2107, 0.0105, 0.0911, 0.1128, -0.9021, 0.0137, 0.1184, -0.1176, 799, 155363, 0.0000, 0.0000, -1.0000, 0.0000
9.9470, 0.2746, 0.1079, -9.7282, -0.1841, -0.2107, 0.0105, 0.0908, 0.1131, -0.9028, 0.0141, 0.1183, -0.1174, 800, 155363, 0.0000, 0.0000, -1.0000, 0.0000
9.9680, 0.2746, 0.1079, -9.7282, -0.1841, -0.2107, 0.0105, 0.0905, 0.1133, -0.9035, 0.0140, 0.1185, -0.1169, 801, 155363, 0.0000, 0.0000, -1.0000, 0.0000
9.9880, 0.2746, 0.1079, -9.7282, -0.1841, -0.2107, 0.0105, 0.0901, 0.1136, -0.9043, 0.0141, 0.1190, -0.1168, 802, 155363, 0.0000, 0.0000, -1.0000, 0.0000
9.9990, 0.2746, 0.1079, -9.7282, -0.1841, -0.2107, 0.0105, 0.0898, 0.1138, -0.9051, 0.0145, 0.1201, -0.1160, 803, 155363, 0.0000, 0.0000, -1.0000, 0.0000
10.0190, 0.2746, 0.1079, -9.7282, -0.1841, -0.2107, 0.0105, 0.0896, 0.1140, -0.9058, 0.0146, 0.1203, -0.1156, 804, 155363, 0.0000, 0.0000, -1.0000, 0.0000
10.0490, 0.2746, 0.1079, -9.7282, -0.1841, -0.2107, 0.0105, 0.0894, 0.1144, -0.9066, 0.0145, 0.1204, -0.1154, 805, 155363, 0.0063, 0.0063, -1.0032, 0.0000
10.0590, 0.2746, 0.1079, -9.7282, -0.1841, -0.2107, 0.0105, 0.0891, 0.1146, -0.9074, 0.0147, 0.1210, -0.1149, 806, 155363, 0.0163, 0.0163, -1.0082, 0.0000
10.0890, 0.2746, 0.1079, -9.7282, -0.1841, -0.2107, 0.0105, 0.0890, 0.1148, -0.9083, 0.0147, 0.1213, -0.1152, 807, 155363, 0.0197, 0.0197, -1.0098, 0.0000
10.0990, 0.2746, 0.1079, -9.7282, -0.1841, -0.2107, 0.0105, 0.0888, 0.1150, -0.9093, 0.0150, 0.1221, -0.1151, 808, 155363, 0.0297, 0.0297, -1.0148, 0.0000
10.1190, 0.2746, 0.1079, -9.7282, -0.1841, -0.2107, 0.0105, 0.0887, 0.1153, -0.9101, 0.0153, 0.1225, -0.1151, 809, 155363, 0.0330, 0.0330, -1.0165, 0.0000
10.1390, 0.2746, 0.1079, -9.7282, -0.1841, -0.2107, 0.0105, 0.0887, 0.1156, -0.9112, 0.0152, 0.1221, -0.1153, 810, 155363, 0.0397, 0.0397, -1.0198, 0.0000
10.1590, 0.2746, 0.1079, -9.7282, -0.1841, -0.2107, 0.0105, 0.0884, 0.1158, -0.9122, 0.0151, 0.1219, -0.1151, 811, 155363, 0.0463, 0.0463, -1.0232, 0.0000
10.1890, 0.2746, 0.1079, -9.7282, -0.1841, -0.2107, 0.0105, 0.0884, 0.1162, -0.9132, 0.0154, 0.1215, -0.1147, 812, 155363, 0.0530, 0.0530, -1.0265, 0.0000
10.1990, 0.2746, 0.1079, -9.7282, -0.1841, -0.2107, 0.0105, 0.0885, 0.1165, -0.9143, 0.0153, 0.1206, -0.1143, 813, 155363, 0.0630, 0.0630, -1.0315, 0.0000
10.2290, 0.2746, 0.1079, -9.7282, -0.1841, -0.2107, 0.0105, 0.0885, 0.1168, -0.9154, 0.0151, 0.1192, -0.1135, 814, 155363, 0.0663, 0.0663, -1.0332, 0.0000
10.2490, 0.2746, 0.1079, -9.7282, -0.1841, -0.2107, 0.0105, 0.0886, 0.1172, -0.9166, 0.0149, 0.1174, -0.1125, 815, 155363, 0.0763, 0.0763, -1.0382, 0.0000
10.2590, 0.2746, 0.1079, -9.7282, -0.1841, -0.2107, 0.0105, 0.0887, 0.1175, -0.9178, 0.0149, 0.1156, -0.1113, 816, 155363, 0.0830, 0.0830, -1.0415, 0.0000
10.2890, 0.2746, 0.1079, -9.7282, -0.1841, -0.2107, 0.0105, 0.0889, 0.1179, -0.9191, 0.0148, 0.1144, -0.1103, 817, 155363, 0.0863, 0.0863, -1.0432, 0.0000
10.3090, 0.2746, 0.1079, -9.7282, -0.1841, -0.2107, 0.0105, 0.0890, 0.1183, -0.9204, 0.0148, 0.1137, -0.1092, 818, 155363, 0.0963, 0.0963, -1.0482, 0.0000
10.3290, 0.2746, 0.1079, -9.7282, -0.1841, -0.2107, 0.0105, 0.0892, 0.1189, -0.9216, 0.0149, 0.1129, -0.1077, 819, 155363, 0.1030, 0.1030, -1.0515, 0.0000
10.3490, 0.2746, 0.1079, -9.7282, -0.1841, -0.2107, 0.0105, 0.0895, 0.1194, -0.9231, 0.0148, 0.1117, -0.1066, 820, 155363, 0.1097, 0.1097, -1.0548, 0.0000
10.3690, 0.2746, 0.1079, -9.7282, -0.1841, -0.2107, 0.0105, 0.0898, 0.1199, -0.9244, 0.0147, 0.1100, -0.1048, 821, 155363, 0.1163, 0.1163, -1.0582, 0.0000
10.3790, 0.2746, 0.1079, -9.7282, -0.1841, -0.2107, 0.0105, 0.0903, 0.1205, -0.9260, 0.0148, 0.1086, -0.1038, 822, 155363, 0.1230, 0.1230, -1.0615, 0.0000
10.3990, 0.2746, 0.1079, -9.7282, -0.1841, -0.2107, 0.0105, 0.0907, 0.1213, -0.9275, 0.0146, 0.1072, -0.1023, 823, 155363, 0.1263, 0.1263, -1.0632, 0.0000
10.4190, 0.2746, 0.1079, -9.7282, -0.1841, -0.2107, 0.0105, 0.0914, 0.1220, -0.9291, 0.0145, 0.1057, -0.1009, 824, 155363, 0.1330, 0.1330, -1.0665, 0.0000
10.4390, 0.2746, 0.1079, -9.7282, -0.1841, -0.2107, 0.0105, 0.0920, 0.1227, -0.9308, 0.0146, 0.1036, -0.0992, 825, 155363, 0.1397, 0.1397, -1.0698, 0.0000
10.4690, 0.2746, 0.1079, -9.7282, -0.1841, -0.2107, 0.0105, 0.0928, 0.1235, -0.9326, 0.0144, 0.1012, -0.0973, 826, 155363, 0.1463, 0.1463, -1.0732, 0.0000
10.4890, 0.2746, 0.1079, -9.7282, -0.1841, -0.2107, 0.0105, 0.0936, 0.1245, -0.9344, 0.0142, 0.0996, -0.0954, 827, 155363, 0.1563, 0.1563, -1.0782, 0.0000
10.5090, 0.2746, 0.1079, -9.7282, -0.1841, -0.2107, 0.0105, 0.0945, 0.1254, -0.9362, 0.0142, 0.0981, -0.0941, 828, 155363, 0.1630, 0.1630, -1.0815, 0.0000
10.5290, 0.2746, 0.1079, -9.7282, -0.1841, -0.2107, 0.0105, 0.0956, 0.1266, -0.9382, 0.0143, 0.0967, -0.0935, 829, 155363, 0.1697, 0.1697, -1.0848, 0.0000
10.5490, 0.2746, 0.1079, -9.7282, -0.1841, -0.2107, 0.0105, 0.0967, 0.1276, -0.9401, 0.0143, 0.0950, -0.0919, 830, 155363, 0.1763, 0.1763, -1.0882, 0.0000
10.5590, 0.2746, 0.1079, -9.7282, -0.1841, -0.2107, 0.0105, 0.0980, 0.1289, -0.9419, 0.0146, 0.0938, -0.0909, 831, 155363, 0.1830, 0.1830, -1.0915, 0.0000
10.5890, 0.2746, 0.1079, -9.7282, -0.1841, -0.2107, 0.0105, 0.0993, 0.1303, -0.9440, 0.0149, 0.0932, -0.0895, 832, 155363, 0.1863, 0.1863, -1.0932, 0.0000
10.6090, 0.2746, 0.1079, -9.7282, -0.1841, -0.2107, 0.0105, 0.1008, 0.1317, -0.9458, 0.0153, 0.0931, -0.0880, 833, 155363, 0.1963, 0.1963, -1.0982, 0.0000
10.6290, 0.2746, 0.1079, -9.7282, -0.1841, -0.2107, 0.0105, 0.1024, 0.1333, -0.9478, 0.0158, 0.0935, -0.0861, 834, 155363, 0.2030, 0.2030, -1.1015, 0.0000
10.6490, 0.2746, 0.1079, -9.7282, -0.1841, -0.2107, 0.0105, 0.1040, 0.1349, -0.9497, 0.0159, 0.0933, -0.0849, 835, 155363, 0.2097, 0.2097, -1.1048, 0.0000
10.6690, 0.2746, 0.1079, -9.7282, -0.1841, -0.2107, 0.0105, 0.1059, 0.1367, -0.9516, 0.0163, 0.0931, -0.0835, 836, 155363, 0.2163, 0.2163, -1.1082, 0.0000
10.6790, 0.2746, 0.1079, -9.7282, -0.1841, -0.2107, 0.0105, 0.1078, 0.1386, -0.9536, 0.0168, 0.0922, -0.0833, 837, 155363, 0.2230, 0.2230, -1.1115, 0.0000
10.7090, 0.2746, 0.1079, -9.7282, -0.1841, -0.2107, 0.0105, 0.1099, 0.1406, -0.9556, 0.0168, 0.0919, -0.0826, 838, 155363, 0.2263, 0.2263, -1.1132, 0.0000
10.7290, 0.2746, 0.1079, -9.7282, -0.1841, -0.2107, 0.0105, 0.1121, 0.1428, -0.9576, 0.0170, 0.0916, -0.0814, 839, 155363, 0.2363, 0.2363, -1.1182, 0.0000
10.7490, 0.2746, 0.1079, -9.7282, -0.1841, -0.2107, 0.0105, 0.1144, 0.1449, -0.9595, 0.0174, 0.0907, -0.0806, 840, 155363, 0.2430, 0.2430, -1.1215, 0.0000
10.7590, 0.2746, 0.1079, -9.7282, -0.1841, -0.2107, 0.0105, 0.1169, 0.1474, -0.9617, 0.0175, 0.0900, -0.0801, 841, 155363, 0.2497, 0.2497, -1.1248, 0.0000
10.7890, 0.2746, 0.1079, -9.7282, -0.1841, -0.2107, 0.0105, 0.1195, 0.1499, -0.9636, 0.0174, 0.0896, -0.0788, 842, 155363, 0.2530, 0.2530, -1.1265, 0.0000
10.8090, 0.2746, 0.1079, -9.7282, -0.1841, -0.2107, 0.0105, 0.1222, 0.1525, -0.9657, 0.0178, 0.0891, -0.0782, 843, 155363, 0.2630, 0.2630, -1.1315, 0.0000
10.8190, 0.2746, 0.1079, -9.7282, -0.1841, -0.2107, 0.0105, 0.1252, 0.1554, -0.9678, 0.0180, 0.0879, -0.0773, 844, 155363, 0.2697, 0.2697, -1.1348, 0.0000
10.8490, 0.2746, 0.1079, -9.7282, -0.1841, -0.2107, 0.0105, 0.1281, 0.1582, -0.9697, 0.0179, 0.0861, -0.0764, 845, 155363, 0.2730, 0.2730, -1.1365, 0.0000
10.8690, 0.2746, 0.1079, -9.7282, -0.1841, -0.2107, 0.0105, 0.1313, 0.1614, -0.9719, 0.0180, 0.0851, -0.0764, 846, 155363, 0.2830, 0.2830, -1.1415, 0.0000
10.8890, 0.2746, 0.1079, -9.7282, -0.1841, -0.2107, 0.0105, 0.1345, 0.1645, -0.9739, 0.0181, 0.0838, -0.0761, 847, 155363, 0.2897, 0.2897, -1.1448, 0.0000
10.8990, 0.2746, 0.1079, -9.7282, -0.1841, -0.2107, 0.0105, 0.1380, 0.1679, -0.9760, 0.0180, 0.0826, -0.0764, 848, 155363, 0.2963, 0.2963, -1.1482, 0.0000
10.9290, 0.2746, 0.1079, -9.7282, -0.1841, -0.2107, 0.0105, 0.1416, 0.1713, -0.9780, 0.0181, 0.0818, -0.0767, 849, 155363, 0.2997, 0.2997, -1.1498, 0.0000
10.9490, 0.2746, 0.1079, -9.7282, -0.1841, -0.2107, 0.0105, 0.1452, 0.1749, -0.9800, 0.0182, 0.0811, -0.0768, 850, 155363, 0.3097, 0.3097, -1.1548, 0.0000
10.9690, 0.2746, 0.1079, -9.7282, -0.1841, -0.2107, 0.0105, 0.1492, 0.1786, -0.9821, 0.0185, 0.0809, -0.0765, 851, 155363, 0.3163, 0.3163, -1.1582, 0.0000
10.9890, 0.2746, 0.1079, -9.7282, -0.1841, -0.2107, 0.0105, 0.1532, 0.1825, -0.9841, 0.0187, 0.0804, -0.0765, 852, 155363, 0.3230, 0.3230, -1.1615, 0.0000
11.0090, 0.2746, 0.1079, -9.7282, -0.1841, -0.2107, 0.0105, 0.1574, 0.1865, -0.9862, 0.0187, 0.0802, -0.0765, 853, 155363, 0.3297, 0.3297, -1.1648, 0.0000
11.0290, 0.2746, 0.1079, -9.7282, -0.1841, -0.2107, 0.0105, 0.1617, 0.1907, -0.9883, 0.0188, 0.0800, -0.0764, 854, 155363, 0.3363, 0.3363, -1.1682, 0.0000
11.0490, 0.2746, 0.1079, -9.7282, -0.1841, -0.2107, 0.0105, 0.1661, 0.1950, -0.9905, 0.0190, 0.0798, -0.0773, 855, 155363, 0.3430, 0.3430, -1.1715, 0.0000
11.0690, 0.2746, 0.1079, -9.7282, -0.1841, -0.2107, 0.0105, 0.1708, 0.1994, -0.9927, 0.0189, 0.0798, -0.0774, 856, 155363, 0.3497, 0.3497, -1.1748, 0.0000
11.0890, 0.2746, 0.1079, -9.7282, -0.1841, -0.2107, 0.0105, 0.1756, 0.2039, -0.9949, 0.0189, 0.0796, -0.0781, 857, 155363, 0.3563, 0.3563, -1.1782, 0.0000
11.1090, 0.2746, 0.1079, -9.7282, -0.1841, -0.2107, 0.0105, 0.1805, 0.2086, -0.9972, 0.0192, 0.0798, -0.0785, 858, 155363, 0.3630, 0.3630, -1.1815, 0.0000
11.1290, 0.2746, 0.1079, -9.7282, -0.1841, -0.2107, 0.0105, 0.1856, 0.2134, -0.9995, 0.0191, 0.0794, -0.0789, 859, 155363, 0.3697, 0.3697, -1.1848, 0.0000
11.1490, 0.2746, 0.1079, -9.7282, -0.1841, -0.2107, 0.0105, 0.1908, 0.2182, -1.0019, 0.0195, 0.0802, -0.0799, 860, 155363, 0.3763, 0.3763, -1.1882, 0.0000
11.1690, 0.2746, 0.1079, -9.7282, -0.1841, -0.2107, 0.0105, 0.1961, 0.2232, -1.0042, 0.0196, 0.0814, -0.0810, 861, 155363, 0.3830, 0.3830, -1.1915, 0.0000
11.1890, 0.2746, 0.1079, -9.7282, -0.1841, -0.2107, 0.0105, 0.2016, 0.2283, -1.0067, 0.0198, 0.0826, -0.0820, 862, 155363, 0.3897, 0.3897, -1.1948, 0.0000
11.2090, 0.2746, 0.1079, -9.7282, -0.1841, -0.2107, 0.0105, 0.2073, 0.2335, -1.0093, 0.0199, 0.0838, -0.0832, 863, 155363, 0.3963, 0.3963, -1.1982, 0.0000
11.2290, 0.2746, 0.1079, -9.7282, -0.1841, -0.2107, 0.0105, 0.2129, 0.2389, -1.0118, 0.0200, 0.0843, -0.0839, 864, 155363, 0.4030, 0.4030, -1.2015, 0.0000
11.2490, 0.2746, 0.1079, -9.7282, -0.1841, -0.2107, 0.0105, 0.2189, 0.2444, -1.0144, 0.0200, 0.0851, -0.0841, 865, 155363, 0.4097, 0.4097, -1.2048, 0.0000
11.2690, 0.2746, 0.1079, -9.7282, -0.1841, -0.2107, 0.0105, 0.2248, 0.2498, -1.0168, 0.0200, 0.0891, -0.0883, 866, 155363, 0.4163, 0.4163, -1.2082, 0.0000
11.2890, 0.2746, 0.1079, -9.7282, -0.1841, -0.2107, 0.0105, 0.2305, 0.2551, -1.0195, 0.0211, 0.0977, -0.0948, 867, 155363, 0.4230, 0.4230, -1.2115, 0.0000
11.3090, 0.2746, 0.1079, -9.7282, -0.1841, -0.2107, 0.0105, 0.2365, 0.2607, -1.0220, 0.0215, 0.1020, -0.0983, 868, 155363, 0.4297, 0.4297, -1.2148, 0.0000
11.3290, 0.2746, 0.1079, -9.7282, -0.1841, -0.2107, 0.0105, 0.2427, 0.2663, -1.0243, 0.0215, 0.1034, -0.0983, 869, 155363, 0.4363, 0.4363, -1.2182, 0.0000
11.3490, 0.2746, 0.1079, -9.7282, -0.1841, -0.2107, 0.0105, 0.2490, 0.2721, -1.0269, 0.0220, 0.1036, -0.0981, 870, 155363, 0.4430, 0.4430, -1.2215, 0.0000
11.3690, 0.2746, 0.1079, -9.7282, -0.1841, -0.2107, 0.0105, 0.2554, 0.2778, -1.0290, 0.0214, 0.1049, -0.0999, 871, 155363, 0.4497, 0.4497, -1.2248, 0.0000
11.3890, 0.2746, 0.1079, -9.7282, -0.1841, -0.2107, 0.0105, 0.2616, 0.2834, -1.0314, 0.0219, 0.1082, -0.1027, 872, 155363, 0.4563, 0.4563, -1.2282, 0.0000
11.4090, 0.2746, 0.1079, -9.7282, -0.1841, -0.2107, 0.0105, 0.2681, 0.2893, -1.0334, 0.0219, 0.1095, -0.1049, 873, 155363, 0.4630, 0.4630, -1.2315, 0.0000
11.4290, 0.2746, 0.1079, -9.7282, -0.1841, -0.2107, 0.0105, 0.2746, 0.2951, -1.0355, 0.0215, 0.1095, -0.1037, 874, 155363, 0.4697, 0.4697, -1.2348, 0.0000
11.4490, 0.2746, 0.1079, -9.7282, -0.1841, -0.2107, 0.0105, 0.2809, 0.3009, -1.0375, 0.0215, 0.1092, -0.1033, 875, 155363, 0.4763, 0.4763, -1.2382, 0.0000
11.4690, 0.2746, 0.1079, -9.7282, -0.1841, -0.2107, 0.0105, 0.2876, 0.3068, -1.0393, 0.0212, 0.1085, -0.1026, 876, 155363, 0.4830, 0.4830, -1.2415, 0.0000
11.4890, 0.2746, 0.1079, -9.7282, -0.1841, -0.2107, 0.0105, 0.2942, 0.3127, -1.0412, 0.0207, 0.1084, -0.1021, 877, 155363, 0.4897, 0.4897, -1.2448, 0.0000
11.5090, 0.2746, 0.1079, -9.7282, -0.1841, -0.2107, 0.0105, 0.3006, 0.3185, -1.0429, 0.0208, 0.1087, -0.1024, 878, 155363, 0.4963, 0.4963, -1.2482, 0.0000
11.5290, 0.2746, 0.1079, -9.7282, -0.1841, -0.2107, 0.0105, 0.3073, 0.3244, -1.0448, 0.0205, 0.1089, -0.1021, 879, 155363, 0.5030, 0.5030, -1.2515, 0.0000
11.5490, 0.2746, 0.1079, -9.7282, -0.1841, -0.2107, 0.0105, 0.3139, 0.3302, -1.0466, 0.0201, 0.1089, -0.1018, 880, 155363, 0.5097, 0.5097, -1.2548, 0.0000
11.5690, 0.2746, 0.1079, -9.7282, -0.1841, -0.2107, 0.0105, 0.3205, 0.3362, -1.0483, 0.0203, 0.1087, -0.1021, 881, 155363, 0.5163, 0.5163, -1.2582, 0.0000
11.5890, 0.2746, 0.1079, -9.7282, -0.1841, -0.2107, 0.0105, 0.3272, 0.3420, -1.0502, 0.0198, 0.1090, -0.1015, 882, 155363, 0.5230, 0.5230, -1.2615, 0.0000
11.6090, 0.2746, 0.1079, -9.7282, -0.1841, -0.2107, 0.0105, 0.3339, 0.3480, -1.0519, 0.0198, 0.1099, -0.1016, 883, 155363, 0.5297, 0.5297, -1.2648, 0.0000
11.6290, 0.2746, 0.1079, -9.7282, -0.1841, -0.2107, 0.0105, 0.3406, 0.3540, -1.0538, 0.0194, 0.1102, -0.1014, 884, 155363, 0.5363, 0.5363, -1.2682, 0.0000
11.6490, 0.2746, 0.1079, -9.7282, -0.1841, -0.2107, 0.0105, 0.3472, 0.3599, -1.0557, 0.0191, 0.1095, -0.1010, 885, 155363, 0.5430, 0.5430, -1.2715, 0.0000
11.6690, 0.2746, 0.1079, -9.7282, -0.1841, -0.2107, 0.0105, 0.3540, 0.3659, -1.0576, 0.0190, 0.1092, -0.0997, 886, 155363, 0.5497, 0.5497, -1.2748, 0.0000
11.6890, 0.2746, 0.1079, -9.7282, -0.1841, -0.2107, 0.0105, 0.3608, 0.3719, -1.0597, 0.0189, 0.1087, -0.0993, 887, 155363, 0.5563, 0.5563, -1.2782, 0.0000
11.7090, 0.2746, 0.1079, -9.7282, -0.1841, -0.2107, 0.0105, 0.3677, 0.3780, -1.0616, 0.0186, 0.1082, -0.0996, 888, 155363, 0.5630, 0.5630, -1.2815, 0.0000
11.7290, 0.2746, 0.1079, -9.7282, -0.1841, -0.2107, 0.0105, 0.3745, 0.3839, -1.0637, 0.0183, 0.1085, -0.0988, 889, 155363, 0.5697, 0.5697, -1.2848, 0.0000
11.7490, 0.2746, 0.1079, -9.7282, -0.1841, -0.2107, 0.0105, 0.3813, 0.3901, -1.0658, 0.0180, 0.1084, -0.0993, 890, 155363, 0.5763, 0.5763, -1.2882, 0.0000
11.7690, 0.2746, 0.1079, -9.7282, -0.1841, -0.2107, 0.0105, 0.3882, 0.3962, -1.0679, 0.0176, 0.1089, -0.0995, 891, 155363, 0.5830, 0.5830, -1.2915, 0.0000
11.7890, 0.2746, 0.1079, -9.7282, -0.1841, -0.2107, 0.0105, 0.3952, 0.4024, -1.0700, 0.0172, 0.1092, -0.0992, 892, 155363, 0.5897, 0.5897, -1.2948, 0.0000
11.8090, 0.2746, 0.1079, -9.7282, -0.1841, -0.2107, 0.0105, 0.4021, 0.4085, -1.0723, 0.0168, 0.1093, -0.0995, 893, 155363, 0.5963, 0.5963, -1.2982, 0.0000
11.8290, 0.2746, 0.1079, -9.7282, -0.1841, -0.2107, 0.0105, 0.4090, 0.4146, -1.0748, 0.0165, 0.1088, -0.0993, 894, 155363, 0.6030, 0.6030, -1.3015, 0.0000
11.8490, 0.2746, 0.1079, -9.7282, -0.1841, -0.2107, 0.0105, 0.4160, 0.4207, -1.0770, 0.0163, 0.1082, -0.0997, 895, 155363, 0.6097, 0.6097, -1.3048, 0.0000
11.8690, 0.2746, 0.1079, -9.7282, -0.1841, -0.2107, 0.0105, 0.4230, 0.4269, -1.0796, 0.0161, 0.1086, -0.1003, 896, 155363, 0.6163, 0.6163, -1.3082, 0.0000
11.8890, 0.2746, 0.1079, -9.7282, -0.1841, -0.2107, 0.0105, 0.4301, 0.4331, -1.0820, 0.0158, 0.1086, -0.1009, 897, 155363, 0.6230, 0.6230, -1.3115, 0.0000
11.9090, 0.2746, 0.1079, -9.7282, -0.1841, -0.2107, 0.0105, 0.4371, 0.4393, -1.0847, 0.0158, 0.1095, -0.1008, 898, 155363, 0.6297, 0.6297, -1.3148, 0.0000
11.9290, 0.2746, 0.1079, -9.7282, -0.1841, -0.2107, 0.0105, 0.4440, 0.4454, -1.0872, 0.0155, 0.1097, -0.1008, 899, 155363, 0.6363, 0.6363, -1.3182, 0.0000
11.9490, 0.2746, 0.1079, -9.7282, -0.1841, -0.2107, 0.0105, 0.4512, 0.4517, -1.0899, 0.0150, 0.1094, -0.1015, 900, 155363, 0.6430, 0.6430, -1.3215, 0.0000
11.9690, 0.2746, 0.1079, -9.7282, -0.1841, -0.2107, 0.0105, 0.4583, 0.4579, -1.0928, 0.0147, 0.1100, -0.1019, 901, 155363, 0.6497, 0.6497, -1.3248, 0.0000
11.9890, 0.2746, 0.1079, -9.7282, -0.1841, -0.2107, 0.0105, 0.4652, 0.4641, -1.0953, 0.0147, 0.1140, -0.1052, 902, 155363, 0.6563, 0.6563, -1.3282, 0.0000
12.0010, 0.2746, 0.1079, -9.7282, -0.1841, -0.2107, 0.0105, 0.4720, 0.4701, -1.0983, 0.0151, 0.1200, -0.1089, 903, 155363, 0.6630, 0.6630, -1.3315, 0.0000
12.0210, 0.2746, 0.1079, -9.7282, -0.1841, -0.2107, 0.0105, 0.4791, 0.4763, -1.1009, 0.0150, 0.1219, -0.1101, 904, 155363, 0.6670, 0.6670, -1.3335, 0.0000
12.0410, 0.2746, 0.1079, -9.7282, -0.1841, -0.2107, 0.0105, 0.4862, 0.4824, -1.1035, 0.0152, 0.1234, -0.1131, 905, 155363, 0.6737, 0.6737, -1.3368, 0.0000
12.0610, 0.2746, 0.1079, -9.7282, -0.1841, -0.2107, 0.0105, 0.4930, 0.4884, -1.1064, 0.0155, 0.1254, -0.1152, 906, 155363, 0.6803, 0.6803, -1.3402, 0.0000
12.0810, 0.2746, 0.1079, -9.7282, -0.1841, -0.2107, 0.0105, 0.5000, 0.4945, -1.1087, 0.0155, 0.1250, -0.1153, 907, 155363, 0.6870, 0.6870, -1.3435, 0.0000
12.1010, 0.2746, 0.1079, -9.7282, -0.1841, -0.2107, 0.0105, 0.5071, 0.5006, -1.1113, 0.0152, 0.1233, -0.1147, 908, 155363, 0.6937, 0.6937, -1.3468, 0.0000
12.1210, 0.2746, 0.1079, -9.7282, -0.1841, -0.2107, 0.0105, 0.5141, 0.5067, -1.1139, 0.0149, 0.1218, -0.1136, 909, 155363, 0.7003, 0.7003, -1.3502, 0.0000
12.1410, 0.2746, 0.1079, -9.7282, -0.1841, -0.2107, 0.0105, 0.5211, 0.5127, -1.1163, 0.0144, 0.1196, -0.1128, 910, 155363, 0.7070, 0.7070, -1.3535, 0.0000
12.1610, 0.2746, 0.1079, -9.7282, -0.1841, -0.2107, 0.0105, 0.5280, 0.5185, -1.1186, 0.0142, 0.1203, -0.1149, 911, 155363, 0.7137, 0.7137, -1.3568, 0.0000
12.1810, 0.2746, 0.1079, -9.7282, -0.1841, -0.2107, 0.0105, 0.5348, 0.5244, -1.1211, 0.0142, 0.1207, -0.1163, 912, 155363, 0.7203, 0.7203, -1.3602, 0.0000
12.2010, 0.2746, 0.1079, -9.7282, -0.1841, -0.2107, 0.0105, 0.5417, 0.5301, -1.1234, 0.0142, 0.1202, -0.1161, 913, 155363, 0.7270, 0.7270, -1.3635, 0.0000
12.2210, 0.2746, 0.1079, -9.7282, -0.1841, -0.2107, 0.0105, 0.5485, 0.5361, -1.1257, 0.0139, 0.1192, -0.1159, 914, 155363, 0.7337, 0.7337, -1.3668, 0.0000
12.2410, 0.2746, 0.1079, -9.7282, -0.1841, -0.2107, 0.0105, 0.5554, 0.5419, -1.1281, 0.0137, 0.1187, -0.1148, 915, 155363, 0.7403, 0.7403, -1.3702, 0.0000
12.2610, 0.2746, 0.1079, -9.7282, -0.1841, -0.2107, 0.0105, 0.5620, 0.5475, -1.1305, 0.0138, 0.1170, -0.1134, 916, 155363, 0.7470, 0.7470, -1.3735, 0.0000
12.2810, 0.2746, 0.1079, -9.7282, -0.1841, -0.2107, 0.0105, 0.5690, 0.5534, -1.1329, 0.0140, 0.1157, -0.1125, 917, 155363, 0.7537, 0.7537, -1.3768, 0.0000
12.3010, 0.2746, 0.1079, -9.7282, -0.1841, -0.2107, 0.0105, 0.5759, 0.5590, -1.1354, 0.0136, 0.1144, -0.1114, 918, 155363, 0.7603, 0.7603, -1.3802, 0.0000
12.3210, 0.2746, 0.1079, -9.7282, -0.1841, -0.2107, 0.0105, 0.5827, 0.5649, -1.1380, 0.0135, 0.1127, -0.1105, 919, 155363, 0.7670, 0.7670, -1.3835, 0.0000
12.3410, 0.2746, 0.1079, -9.7282, -0.1841, -0.2107, 0.0105, 0.5895, 0.5704, -1.1407, 0.0133, 0.1120, -0.1094, 920, 155363, 0.7737, 0.7737, -1.3868, 0.0000
12.3610, 0.2746, 0.1079, -9.7282, -0.1841, -0.2107, 0.0105, 0.5962, 0.5761, -1.1436, 0.0131, 0.1112, -0.1084, 921, 155363, 0.7803, 0.7803, -1.3902, 0.0000
12.3810, 0.2746, 0.1079, -9.7282, -0.1841, -0.2107, 0.0105, 0.6031, 0.5818, -1.1469, 0.0130, 0.1114, -0.1075, 922, 155363, 0.7870, 0.7870, -1.3935, 0.0000
12.4010, 0.2746, 0.1079, -9.7282, -0.1841, -0.2107, 0.0105, 0.6097, 0.5875, -1.1505, 0.0128, 0.1116, -0.1060, 923, 155363, 0.7937, 0.7937, -1.3968, 0.0000
12.4210, 0.2746, 0.1079, -9.7282, -0.1841, -0.2107, 0.0105, 0.6164, 0.5932, -1.1543, 0.0127, 0.1112, -0.1047, 924, 155363, 0.8003, 0.8003, -1.4002, 0.0000
12.4410, 0.2746, 0.1079, -9.7282, -0.1841, -0.2107, 0.0105, 0.6231, 0.5990, -1.1584, 0.0129, 0.1115, -0.1035, 925, 155363, 0.8070, 0.8070, -1.4035, 0.0000
12.4610, 0.2746, 0.1079, -9.7282, -0.1841, -0.2107, 0.0105, 0.6298, 0.6047, -1.1625, 0.0128, 0.1107, -0.1033, 926, 155363, 0.8137, 0.8137, -1.4068, 0.0000
12.4810, 0.2746, 0.1079, -9.7282, -0.1841, -0.2107, 0.0105, 0.6366, 0.6103, -1.1667, 0.0125, 0.1103, -0.1029, 927, 155363, 0.8203, 0.8203, -1.4102, 0.0000
12.5010, 0.2746, 0.1079, -9.7282, -0.1841, -0.2107, 0.0105, 0.6433, 0.6160, -1.1708, 0.0127, 0.1100, -0.1028, 928, 155363, 0.8270, 0.8270, -1.4135, 0.0000
12.5210, 0.2746, 0.1079, -9.7282, -0.1841, -0.2107, 0.0105, 0.6501, 0.6218, -1.1750, 0.0127, 0.1097, -0.1034, 929, 155363, 0.8337, 0.8337, -1.4168, 0.0000
12.5410, 0.2746, 0.1079, -9.7282, -0.1841, -0.2107, 0.0105, 0.6569, 0.6275, -1.1790, 0.0120, 0.1082, -0.1032, 930, 155363, 0.8403, 0.8403, -1.4202, 0.0000
12.5610, 0.2746, 0.1079, -9.7282, -0.1841, -0.2107, 0.0105, 0.6637, 0.6332, -1.1831, 0.0119, 0.1090, -0.1024, 931, 155363, 0.8470, 0.8470, -1.4235, 0.0000
12.5810, 0.2746, 0.1079, -9.7282, -0.1841, -0.2107, 0.0105, 0.6707, 0.6389, -1.1872, 0.0123, 0.1078, -0.1020, 932, 155363, 0.8537, 0.8537, -1.4268, 0.0000
12.6010, 0.2746, 0.1079, -9.7282, -0.1841, -0.2107, 0.0105, 0.6775, 0.6447, -1.1910, 0.0119, 0.1070, -0.1018, 933, 155363, 0.8603, 0.8603, -1.4302, 0.0000
12.6210, 0.2746, 0.1079, -9.7282, -0.1841, -0.2107, 0.0105, 0.6843, 0.6504, -1.1950, 0.0120, 0.1073, -0.1015, 934, 155363, 0.8670, 0.8670, -1.4335, 0.0000
12.6410, 0.2746, 0.1079, -9.7282, -0.1841, -0.2107, 0.0105, 0.6913, 0.6562, -1.1988, 0.0124, 0.1072, -0.1009, 935, 155363, 0.8737, 0.8737, -1.4368, 0.0000
12.6610, 0.2746, 0.1079, -9.7282, -0.1841, -0.2107, 0.0105, 0.6982, 0.6621, -1.2025, 0.0124, 0.1075, -0.1008, 936, 155363, 0.8803, 0.8803, -1.4402, 0.0000
12.6810, 0.2746, 0.1079, -9.7282, -0.1841, -0.2107, 0.0105, 0.7051, 0.6679, -1.2062, 0.0125, 0.1079, -0.1003, 937, 155363, 0.8870, 0.8870, -1.4435, 0.0000
12.7010, 0.2746, 0.1079, -9.7282, -0.1841, -0.2107, 0.0105, 0.7120, 0.6735, -1.2097, 0.0127, 0.1077, -0.1007, 938, 155363, 0.8937, 0.8937, -1.4468, 0.0000
12.7210, 0.2746, 0.1079, -9.7282, -0.1841, -0.2107, 0.0105, 0.7192, 0.6794, -1.2135, 0.0125, 0.1074, -0.1008, 939, 155363, 0.9003, 0.9003, -1.4502, 0.0000
12.7410, 0.2746, 0.1079, -9.7282, -0.1841, -0.2107, 0.0105, 0.7262, 0.6853, -1.2171, 0.0126, 0.1072, -0.1005, 940, 155363, 0.9070, 0.9070, -1.4535, 0.0000
12.7610, 0.2746, 0.1079, -9.7282, -0.1841, -0.2107, 0.0105, 0.7334, 0.6912, -1.2207, 0.0126, 0.1065, -0.1000, 941, 155363, 0.9137, 0.9137, -1.4568, 0.0000
12.7810, 0.2746, 0.1079, -9.7282, -0.1841, -0.2107, 0.0105, 0.7405, 0.6970, -1.2243, 0.0127, 0.1060, -0.0996, 942, 155363, 0.9203, 0.9203, -1.4602, 0.0000
12.8010, 0.2746, 0.1079, -9.7282, -0.1841, -0.2107, 0.0105, 0.7478, 0.7031, -1.2277, 0.0125, 0.1068, -0.0997, 943, 155363, 0.9270, 0.9270, -1.4635, 0.0000
12.8210, 0.2746, 0.1079, -9.7282, -0.1841, -0.2107, 0.0105, 0.7549, 0.7089, -1.2310, 0.0131, 0.1128, -0.1036, 944, 155363, 0.9337, 0.9337, -1.4668, 0.0000
12.8410, 0.2746, 0.1079, -9.7282, -0.1841, -0.2107, 0.0105, 0.7618, 0.7147, -1.2344, 0.0140, 0.1175, -0.1062, 945, 155363, 0.9403, 0.9403, -1.4702, 0.0000
12.8610, 0.2746, 0.1079, -9.7282, -0.1841, -0.2107, 0.0105, 0.7690, 0.7206, -1.2374, 0.0142, 0.1191, -0.1061, 946, 155363, 0.9470, 0.9470, -1.4735, 0.0000
12.8810, 0.2746, 0.1079, -9.7282, -0.1841, -0.2107, 0.0105, 0.7763, 0.7266, -1.2406, 0.0140, 0.1193, -0.1052, 947, 155363, 0.9537, 0.9537, -1.4768, 0.0000
12.9010, 0.2746, 0.1079, -9.7282, -0.1841, -0.2107, 0.0105, 0.7835, 0.7326, -1.2435, 0.0142, 0.1181, -0.1037, 948, 155363, 0.9603, 0.9603, -1.4802, 0.0000
12.9210, 0.2746, 0.1079, -9.7282, -0.1841, -0.2107, 0.0105, 0.7907, 0.7384, -1.2463, 0.0135, 0.1158, -0.1028, 949, 155363, 0.9670, 0.9670, -1.4835, 0.0000
12.9410, 0.2746, 0.1079, -9.7282, -0.1841, -0.2107, 0.0105, 0.7980, 0.7445, -1.2491, 0.0134, 0.1139, -0.1016, 950, 155363, 0.9737, 0.9737, -1.4868, 0.0000
12.9610, 0.2746, 0.1079, -9.7282, -0.1841, -0.2107, 0.0105, 0.8052, 0.7505, -1.2517, 0.0132, 0.1131, -0.1003, 951, 155363, 0.9803, 0.9803, -1.4902, 0.0000
12.9810, 0.2746, 0.1079, -9.7282, -0.1841, -0.2107, 0.0105, 0.8123, 0.7565, -1.2542, 0.0131, 0.1121, -0.1002, 952, 155363, 0.9870, 0.9870, -1.4935, 0.0000
13.0010, 0.2746, 0.1079, -9.7282, -0.1841, -0.2107, 0.0105, 0.8196, 0.7624, -1.2568, 0.0132, 0.1122, -0.0996, 953, 155363, 0.9937, 0.9937, -1.4968, 0.0000
13.0210, 0.2746, 0.1079, -9.7282, -0.1841, -0.2107, 0.0105, 0.8268, 0.7685, -1.2591, 0.0133, 0.1118, -0.0989, 954, 155363, 1.0000, 1.0000, -1.5000, 0.0000
13.0410, 0.2746, 0.1079, -9.7282, -0.1841, -0.2107, 0.0105, 0.8340, 0.7745, -1.2616, 0.0133, 0.1125, -0.0988, 955, 155363, 1.0000, 1.0000, -1.5000, 0.0000
13.0610, 0.2746, 0.1079, -9.7282, -0.1841, -0.2107, 0.0105, 0.8411, 0.7803, -1.2639, 0.0136, 0.1168, -0.1034, 956, 155363, 1.0000, 1.0000, -1.5000, 0.0000
13.0810, 0.2746, 0.1079, -9.7282, -0.1841, -0.2107, 0.0105, 0.8480, 0.7862, -1.2662, 0.0143, 0.1192, -0.1053, 957, 155363, 1.0000, 1.0000, -1.5000, 0.0000
13.1010, 0.2746, 0.1079, -9.7282, -0.1841, -0.2107, 0.0105, 0.8553, 0.7924, -1.2683, 0.0139, 0.1192, -0.1052, 958, 155363, 1.0000, 1.0000, -1.5000, 0.0000
13.1210, 0.2746, 0.1079, -9.7282, -0.1841, -0.2107, 0.0105, 0.8624, 0.7984, -1.2705, 0.0140, 0.1193, -0.1041, 959, 155363, 1.0000, 1.0000, -1.5000, 0.0000
13.1410, 0.2746, 0.1079, -9.7282, -0.1841, -0.2107, 0.0105, 0.8695, 0.8044, -1.2729, 0.0138, 0.1187, -0.1037, 960, 155363, 1.0000, 1.0000, -1.5000, 0.0000
13.1610, 0.2746, 0.1079, -9.7282, -0.1841, -0.2107, 0.0105, 0.8767, 0.8105, -1.2750, 0.0134, 0.1182, -0.1030, 961, 155363, 1.0000, 1.0000, -1.5000, 0.0000
13.1810, 0.2746, 0.1079, -9.7282, -0.1841, -0.2107, 0.0105, 0.8837, 0.8166, -1.2773, 0.0133, 0.1183, -0.1031, 962, 155363, 1.0000, 1.0000, -1.5000, 0.0000
13.2010, 0.2746, 0.1079, -9.7282, -0.1841, -0.2107, 0.0105, 0.8909, 0.8225, -1.2796, 0.0135, 0.1183, -0.1034, 963, 155363, 1.0000, 1.0000, -1.5000, 0.0000
13.2210, 0.2746, 0.1079, -9.7282, -0.1841, -0.2107, 0.0105, 0.8980, 0.8286, -1.2818, 0.0136, 0.1192, -0.1040, 964, 155363, 1.0000, 1.0000, -1.5000, 0.0000
13.2410, 0.2746, 0.1079, -9.7282, -0.1841, -0.2107, 0.0105, 0.9050, 0.8346, -1.2842, 0.0136, 0.1209, -0.1041, 965, 155363, 1.0000, 1.0000, -1.5000, 0.0000
13.2610, 0.2746, 0.1079, -9.7282, -0.1841, -0.2107, 0.0105, 0.9120, 0.8406, -1.2864, 0.0137, 0.1240, -0.1073, 966, 155363, 1.0000, 1.0000, -1.5000, 0.0000
13.2810, 0.2746, 0.1079, -9.7282, -0.1841, -0.2107, 0.0105, 0.9188, 0.8464, -1.2888, 0.0140, 0.1269, -0.1092, 967, 155363, 1.0000, 1.0000, -1.5000, 0.0000
13.3010, 0.2746, 0.1079, -9.7282, -0.1841, -0.2107, 0.0105, 0.9257, 0.8524, -1.2909, 0.0144, 0.1296, -0.1110, 968, 155363, 1.0000, 1.0000, -1.5000, 0.0000
13.3210, 0.2746, 0.1079, -9.7282, -0.1841, -0.2107, 0.0105, 0.9324, 0.8582, -1.2933, 0.0147, 0.1314, -0.1121, 969, 155363, 1.0000, 1.0000, -1.5000, 0.0000
13.3410, 0.2746, 0.1079, -9.7282, -0.1841, -0.2107, 0.0105, 0.9392, 0.8641, -1.2956, 0.0146, 0.1326, -0.1138, 970, 155363, 1.0000, 1.0000, -1.5000, 0.0000
13.3610, 0.2746, 0.1079, -9.7282, -0.1841, -0.2107, 0.0105, 0.9459, 0.8698, -1.2977, 0.0145, 0.1334, -0.1150, 971, 155363, 1.0000, 1.0000, -1.5000, 0.0000
13.3810, 0.2746, 0.1079, -9.7282, -0.1841, -0.2107, 0.0105, 0.9524, 0.8756, -1.2999, 0.0151, 0.1345, -0.1163, 972, 155363, 1.0000, 1.0000, -1.5000, 0.0000
13.4010, 0.2746, 0.1079, -9.7282, -0.1841, -0.2107, 0.0105, 0.9592, 0.8814, -1.3021, 0.0147, 0.1367, -0.1188, 973, 155363, 1.0000, 1.0000, -1.5000, 0.0000
13.4210, 0.2746, 0.1079, -9.7282, -0.1841, -0.2107, 0.0105, 0.9655, 0.8870, -1.3043, 0.0157, 0.1440, -0.1238, 974, 155363, 1.0000, 1.0000, -1.5000, 0.0000
13.4410, 0.2746, 0.1079, -9.7282, -0.1841, -0.2107, 0.0105, 0.9717, 0.8925, -1.3065, 0.0169, 0.1499, -0.1275, 975, 155363, 1.0000, 1.0000, -1.5000, 0.0000
13.4610, 0.2746, 0.1079, -9.7282, -0.1841, -0.2107, 0.0105, 0.9778, 0.8980, -1.3084, 0.0169, 0.1522, -0.1287, 976, 155363, 1.0000, 1.0000, -1.5000, 0.0000
13.4810, 0.2746, 0.1079, -9.7282, -0.1841, -0.2107, 0.0105, 0.9840, 0.9035, -1.3104, 0.0167, 0.1518, -0.1284, 977, 155363, 1.0000, 1.0000, -1.5000, 0.0000
13.5010, 0.2746, 0.1079, -9.7282, -0.1841, -0.2107, 0.0105, 0.9902, 0.9089, -1.3126, 0.0162, 0.1509, -0.1286, 978, 155363, 1.0000, 1.0000, -1.5000, 0.0000
13.5210, 0.2746, 0.1079, -9.7282, -0.1841, -0.2107, 0.0105, 0.9962, 0.9142, -1.3144, 0.0156, 0.1498, -0.1282, 979, 155363, 1.0000, 1.0000, -1.5000, 0.0000
13.5410, 0.2746, 0.1079, -9.7282, -0.1841, -0.2107, 0.0105, 1.0019, 0.9195, -1.3162, 0.0152, 0.1492, -0.1286, 980, 155363, 1.0000, 1.0000, -1.5000, 0.0000
13.5610, 0.2746, 0.1079, -9.7282, -0.1841, -0.2107, 0.0105, 1.0075, 0.9245, -1.3179, 0.0152, 0.1491, -0.1294, 981, 155363, 1.0000, 1.0000, -1.5000, 0.0000
13.5810, 0.2746, 0.1079, -9.7282, -0.1841, -0.2107, 0.0105, 1.0131, 0.9295, -1.3196, 0.0151, 0.1502, -0.1296, 982, 155363, 1.0000, 1.0000, -1.5000, 0.0000
13.6010, 0.2746, 0.1079, -9.7282, -0.1841, -0.2107, 0.0105, 1.0182, 0.9343, -1.3211, 0.0152, 0.1510, -0.1300, 983, 155363, 1.0000, 1.0000, -1.5000, 0.0000
13.6210, 0.2746, 0.1079, -9.7282, -0.1841, -0.2107, 0.0105, 1.0236, 0.9393, -1.3227, 0.0150, 0.1519, -0.1301, 984, 155363, 1.0000, 1.0000, -1.5000, 0.0000
13.6410, 0.2746, 0.1079, -9.7282, -0.1841, -0.2107, 0.0105, 1.0286, 0.9439, -1.3244, 0.0149, 0.1520, -0.1303, 985, 155363, 1.0000, 1.0000, -1.5000, 0.0000
13.6610, 0.2746, 0.1079, -9.7282, -0.1841, -0.2107, 0.0105, 1.0337, 0.9485, -1.3260, 0.0149, 0.1513, -0.1309, 986, 155363, 1.0000, 1.0000, -1.5000, 0.0000
13.6810, 0.2746, 0.1079, -9.7282, -0.1841, -0.2107, 0.0105, 1.0385, 0.9529, -1.3277, 0.0144, 0.1515, -0.1312, 987, 155363, 1.0000, 1.0000, -1.5000, 0.0000
13.7010, 0.2746, 0.1079, -9.7282, -0.1841, -0.2107, 0.0105, 1.0432, 0.9574, -1.3292, 0.0145, 0.1517, -0.1310, 988, 155363, 1.0000, 1.0000, -1.5000, 0.0000
13.7210, 0.2746, 0.1079, -9.7282, -0.1841, -0.2107, 0.0105, 1.0479, 0.9616, -1.3310, 0.0144, 0.1519, -0.1313, 989, 155363, 1.0000, 1.0000, -1.5000, 0.0000
13.7410, 0.2746, 0.1079, -9.7282, -0.1841, -0.2107, 0.0105, 1.0524, 0.9659, -1.3325, 0.0145, 0.1519, -0.1325, 990, 155363, 1.0000, 1.0000, -1.5000, 0.0000
13.7610, 0.2746, 0.1079, -9.7282, -0.1841, -0.2107, 0.0105, 1.0565, 0.9699, -1.3340, 0.0142, 0.1514, -0.1329, 991, 155363, 1.0000, 1.0000, -1.5000, 0.0000
13.7810, 0.2746, 0.1079, -9.7282, -0.1841, -0.2107, 0.0105, 1.0610, 0.9739, -1.3357, 0.0142, 0.1506, -0.1329, 992, 155363, 1.0000, 1.0000, -1.5000, 0.0000
13.8010, 0.2746, 0.1079, -9.7282, -0.1841, -0.2107, 0.0105, 1.0648, 0.9780, -1.3372, 0.0140, 0.1506, -0.1330, 993, 155363, 1.0000, 1.0000, -1.5000, 0.0000
13.8210, 0.2746, 0.1079, -9.7282, -0.1841, -0.2107, 0.0105, 1.0688, 0.9817, -1.3389, 0.0138, 0.1504, -0.1334, 994, 155363, 1.0000, 1.0000, -1.5000, 0.0000
13.8410, 0.2746, 0.1079, -9.7282, -0.1841, -0.2107, 0.0105, 1.0727, 0.9854, -1.3404, 0.0139, 0.1513, -0.1341, 995, 155363, 1.0000, 1.0000, -1.5000, 0.0000
13.8610, 0.2746, 0.1079, -9.7282, -0.1841, -0.2107, 0.0105, 1.0763, 0.9891, -1.3420, 0.0140, 0.1513, -0.1345, 996, 155363, 1.0000, 1.0000, -1.5000, 0.0000
13.8810, 0.2746, 0.1079, -9.7282, -0.1841, -0.2107, 0.0105, 1.0800, 0.9925, -1.3436, 0.0137, 0.1505, -0.1358, 997, 155363, 1.0000, 1.0000, -1.5000, 0.0000
13.9010, 0.2746, 0.1079, -9.7282, -0.1841, -0.2107, 0.0105, 1.0835, 0.9959, -1.3451, 0.0135, 0.1501, -0.1374, 998, 155363, 1.0000, 1.0000, -1.5000, 0.0000
13.9210, 0.2746, 0.1079, -9.7282, -0.1841, -0.2107, 0.0105, 1.0870, 0.9992, -1.3468, 0.0136, 0.1504, -0.1380, 999, 155363, 1.0000, 1.0000, -1.5000, 0.0000
13.9410, 0.2746, 0.1079, -9.7282, -0.1841, -0.2107, 0.0105, 1.0901, 1.0023, -1.3482, 0.0135, 0.1508, -0.1388, 1000, 155363, 1.0000, 1.0000, -1.5000, 0.0000
13.9610, 0.2746, 0.1079, -9.7282, -0.1841, -0.2107, 0.0105, 1.0933, 1.0054, -1.3497, 0.0135, 0.1502, -0.1396, 1001, 155363, 1.0000, 1.0000, -1.5000, 0.0000
13.9810, 0.2746, 0.1079, -9.7282, -0.1841, -0.2107, 0.0105, 1.0964, 1.0083, -1.3512, 0.0133, 0.1505, -0.1402, 1002, 155363, 1.0000, 1.0000, -1.5000, 0.0000
14.0020, 0.2746, 0.1079, -9.7282, -0.1841, -0.2107, 0.0105, 1.0992, 1.0112, -1.3526, 0.0133, 0.1504, -0.1406, 1003, 155363, 1.0000, 1.0000, -1.5000, 0.0000
14.0220, 0.2746, 0.1079, -9.7282, -0.1841, -0.2107, 0.0105, 1.1022, 1.0139, -1.3542, 0.0133, 0.1502, -0.1412, 1004, 155363, 1.0000, 1.0000, -1.5000, 0.0000
14.0420, 0.2746, 0.1079, -9.7282, -0.1841, -0.2107, 0.0105, 1.1048, 1.0164, -1.3555, 0.0129, 0.1501, -0.1418, 1005, 155363, 1.0000, 1.0000, -1.5000, 0.0000
14.0620, 0.2746, 0.1079, -9.7282, -0.1841, -0.2107, 0.0105, 1.1074, 1.0190, -1.3570, 0.0127, 0.1495, -0.1408, 1006, 155363, 1.0000, 1.0000, -1.5000, 0.0000
14.0820, 0.2746, 0.1079, -9.7282, -0.1841, -0.2107, 0.0105, 1.1099, 1.0212, -1.3584, 0.0126, 0.1492, -0.1410, 1007, 155363, 1.0000, 1.0000, -1.5000, 0.0000
14.1020, 0.2746, 0.1079, -9.7282, -0.1841, -0.2107, 0.0105, 1.1123, 1.0235, -1.3598, 0.0119, 0.1486, -0.1419, 1008, 155363, 1.0000, 1.0000, -1.5000, 0.0000
14.1220, 0.2746, 0.1079, -9.7282, -0.1841, -0.2107, 0.0105, 1.1145, 1.0256, -1.3613, 0.0120, 0.1483, -0.1421, 1009, 155363, 1.0000, 1.0000, -1.5000, 0.0000
14.1420, 0.2746, 0.1079, -9.7282, -0.1841, -0.2107, 0.0105, 1.1167, 1.0276, -1.3629, 0.0122, 0.1488, -0.1417, 1010, 155363, 1.0000, 1.0000, -1.5000, 0.0000
14.1640, 0.2746, 0.1079, -9.7282, -0.1841, -0.2107, 0.0105, 1.1187, 1.0295, -1.3642, 0.0118, 0.1489, -0.1412, 1011, 155363, 1.0000, 1.0000, -1.5000, 0.0000
14.1840, 0.2746, 0.1079, -9.7282, -0.1841, -0.2107, 0.0105, 1.1206, 1.0313, -1.3657, 0.0119, 0.1492, -0.1403, 1012, 155363, 1.0000, 1.0000, -1.5000, 0.0000
14.2040, 0.2746, 0.1079, -9.7282, -0.1841, -0.2107, 0.0105, 1.1227, 1.0329, -1.3673, 0.0119, 0.1492, -0.1394, 1013, 155363, 1.0000, 1.0000, -1.5000, 0.0000
14.2240, 0.2746, 0.1079, -9.7282, -0.1841, -0.2107, 0.0105, 1.1245, 1.0345, -1.3688, 0.0113, 0.1479, -0.1393, 1014, 155363, 1.0000, 1.0000, -1.5000, 0.0000
14.2440, 0.2746, 0.1079, -9.7282, -0.1841, -0.2107, 0.0105, 1.1262, 1.0360, -1.3704, 0.0115, 0.1482, -0.1394, 1015, 155363, 1.0000, 1.0000, -1.5000, 0.0000
14.2640, 0.2746, 0.1079, -9.7282, -0.1841, -0.2107, 0.0105, 1.1279, 1.0374, -1.3719, 0.0113, 0.1476, -0.1392, 1016, 155363, 1.0000, 1.0000, -1.5000, 0.0000
14.2840, 0.2746, 0.1079, -9.7282, -0.1841, -0.2107, 0.0105, 1.1295, 1.0388, -1.3736, 0.0113, 0.1477, -0.1384, 1017, 155363, 1.0000, 1.0000, -1.5000, 0.0000
14.3040, 0.2746, 0.1079, -9.7282, -0.1841, -0.2107, 0.0105, 1.1308, 1.0398, -1.3751, 0.0110, 0.1471, -0.1374, 1018, 155363, 1.0000, 1.0000, -1.5000, 0.0000
14.3240, 0.2746, 0.1079, -9.7282, -0.1841, -0.2107, 0.0105, 1.1322, 1.0409, -1.3767, 0.0110, 0.1466, -0.1370, 1019, 155363, 1.0000, 1.0000, -1.5000, 0.0000
14.3440, 0.2746, 0.1079, -9.7282, -0.1841, -0.2107, 0.0105, 1.1335, 1.0419, -1.3784, 0.0109, 0.1460, -0.1363, 1020, 155363, 1.0000, 1.0000, -1.5000, 0.0000
14.3640, 0.2746, 0.1079, -9.7282, -0.1841, -0.2107, 0.0105, 1.1347, 1.0428, -1.3801, 0.0108, 0.1453, -0.1356, 1021, 155363, 1.0000, 1.0000, -1.5000, 0.0000
14.3840, 0.2746, 0.1079, -9.7282, -0.1841, -0.2107, 0.0105, 1.1358, 1.0436, -1.3818, 0.0107, 0.1447, -0.1358, 1022, 155363, 1.0000, 1.0000, -1.5000, 0.0000
14.4040, 0.2746, 0.1079, -9.7282, -0.1841, -0.2107, 0.0105, 1.1368, 1.0442, -1.3836, 0.0102, 0.1443, -0.1352, 1023, 155363, 1.0000, 1.0000, -1.5000, 0.0000
14.4240, 0.2746, 0.1079, -9.7282, -0.1841, -0.2107, 0.0105, 1.1378, 1.0449, -1.3852, 0.0103, 0.1436, -0.1342, 1024, 155363, 1.0000, 1.0000, -1.5000, 0.0000
14.4440, 0.2746, 0.1079, -9.7282, -0.1841, -0.2107, 0.0105, 1.1387, 1.0455, -1.3871, 0.0101, 0.1442, -0.1333, 1025, 155363, 1.0000, 1.0000, -1.5000, 0.0000
14.4640, 0.2746, 0.1079, -9.7282, -0.1841, -0.2107, 0.0105, 1.1395, 1.0459, -1.3887, 0.0097, 0.1439, -0.1328, 1026, 155363, 1.0000, 1.0000, -1.5000, 0.0000
14.4840, 0.2746, 0.1079, -9.7282, -0.1841, -0.2107, 0.0105, 1.1402, 1.0464, -1.3904, 0.0095, 0.1428, -0.1331, 1027, 155363, 1.0000, 1.0000, -1.5000, 0.0000
14.5040, 0.2746, 0.1079, -9.7282, -0.1841, -0.2107, 0.0105, 1.1409, 1.0467, -1.3923, 0.0093, 0.1424, -0.1322, 1028, 155363, 1.0000, 1.0000, -1.5000, 0.0000
14.5240, 0.2746, 0.1079, -9.7282, -0.1841, -0.2107, 0.0105, 1.1416, 1.0470, -1.3939, 0.0091, 0.1417, -0.1312, 1029, 155363, 1.0000, 1.0000, -1.5000, 0.0000
14.5440, 0.2746, 0.1079, -9.7282, -0.1841, -0.2107, 0.0105, 1.1423, 1.0472, -1.3959, 0.0092, 0.1410, -0.1297, 1030, 155363, 1.0000, 1.0000, -1.5000, 0.0000
14.5640, 0.2746, 0.1079, -9.7282, -0.1841, -0.2107, 0.0105, 1.1427, 1.0474, -1.3975, 0.0089, 0.1402, -0.1292, 1031, 155363, 1.0000, 1.0000, -1.5000, 0.0000
14.5840, 0.2746, 0.1079, -9.7282, -0.1841, -0.2107, 0.0105, 1.1432, 1.0476, -1.3992, 0.0087, 0.1396, -0.1275, 1032, 155363, 1.0000, 1.0000, -1.5000, 0.0000
14.6040, 0.2746, 0.1079, -9.7282, -0.1841, -0.2107, 0.0105, 1.1437, 1.0477, -1.4011, 0.0087, 0.1393, -0.1257, 1033, 155363, 1.0000, 1.0000, -1.5000, 0.0000
14.6240, 0.2746, 0.1079, -9.7282, -0.1841, -0.2107, 0.0105, 1.1442, 1.0479, -1.4028, 0.0087, 0.1383, -0.1249, 1034, 155363, 1.0000, 1.0000, -1.5000, 0.0000
14.6440, 0.2746, 0.1079, -9.7282, -0.1841, -0.2107, 0.0105, 1.1445, 1.0478, -1.4045, 0.0085, 0.1385, -0.1246, 1035, 155363, 1.0000, 1.0000, -1.5000, 0.0000
14.6640, 0.2746, 0.1079, -9.7282, -0.1841, -0.2107, 0.0105, 1.1449, 1.0479, -1.4062, 0.0085, 0.1377, -0.1231, 1036, 155363, 1.0000, 1.0000, -1.5000, 0.0000
14.6840, 0.2746, 0.1079, -9.7282, -0.1841, -0.2107, 0.0105, 1.1452, 1.0479, -1.4080, 0.0087, 0.1366, -0.1219, 1037, 155363, 1.0000, 1.0000, -1.5000, 0.0000
14.7040, 0.2746, 0.1079, -9.7282, -0.1841, -0.2107, 0.0105, 1.1454, 1.0478, -1.4097, 0.0086, 0.1370, -0.1213, 1038, 155363, 1.0000, 1.0000, -1.5000, 0.0000
14.7240, 0.2746, 0.1079, -9.7282, -0.1841, -0.2107, 0.0105, 1.1458, 1.0478, -1.4114, 0.0091, 0.1369, -0.1207, 1039, 155363, 1.0000, 1.0000, -1.5000, 0.0000
14.7440, 0.2746, 0.1079, -9.7282, -0.1841, -0.2107, 0.0105, 1.1459, 1.0477, -1.4131, 0.0089, 0.1372, -0.1204, 1040, 155363, 1.0000, 1.0000, -1.5000, 0.0000
14.7640, 0.2746, 0.1079, -9.7282, -0.1841, -0.2107, 0.0105, 1.1460, 1.0476, -1.4148, 0.0090, 0.1366, -0.1189, 1041, 155363, 1.0000, 1.0000, -1.5000, 0.0000
14.7840, 0.2746, 0.1079, -9.7282, -0.1841, -0.2107, 0.0105, 1.1460, 1.0474, -1.4163, 0.0088, 0.1362, -0.1185, 1042, 155363, 1.0000, 1.0000, -1.5000, 0.0000
14.8040, 0.2746, 0.1079, -9.7282, -0.1841, -0.2107, 0.0105, 1.1461, 1.0473, -1.4181, 0.0087, 0.1370, -0.1175, 1043, 155363, 1.0000, 1.0000, -1.5000, 0.0000
14.8240, 0.2746, 0.1079, -9.7282, -0.1841, -0.2107, 0.0105, 1.1462, 1.0472, -1.4197, 0.0086, 0.1370, -0.1170, 1044, 155363, 1.0000, 1.0000, -1.5000, 0.0000
14.8440, 0.2746, 0.1079, -9.7282, -0.1841, -0.2107, 0.0105, 1.1462, 1.0470, -1.4215, 0.0091, 0.1359, -0.1165, 1045, 155363, 1.0000, 1.0000, -1.5000, 0.0000
14.8640, 0.2746, 0.1079, -9.7282, -0.1841, -0.2107, 0.0105, 1.1462, 1.0469, -1.4232, 0.0090, 0.1355, -0.1151, 1046, 155363, 1.0000, 1.0000, -1.5000, 0.0000
14.8840, 0.2746, 0.1079, -9.7282, -0.1841, -0.2107, 0.0105, 1.1461, 1.0467, -1.4247, 0.0092, 0.1343, -0.1138, 1047, 155363, 1.0000, 1.0000, -1.5000, 0.0000
14.9040, 0.2746, 0.1079, -9.7282, -0.1841, -0.2107, 0.0105, 1.1462, 1.0466, -1.4265, 0.0092, 0.1340, -0.1126, 1048, 155363, 1.0000, 1.0000, -1.5000, 0.0000
14.9240, 0.2746, 0.1079, -9.7282, -0.1841, -0.2107, 0.0105, 1.1462, 1.0465, -1.4282, 0.0094, 0.1338, -0.1117, 1049, 155363, 1.0000, 1.0000, -1.5000, 0.0000
14.9440, 0.2746, 0.1079, -9.7282, -0.1841, -0.2107, 0.0105, 1.1462, 1.0463, -1.4300, 0.0102, 0.1330, -0.1105, 1050, 155363, 1.0000, 1.0000, -1.5000, 0.0000
14.9640, 0.2746, 0.1079, -9.7282, -0.1841, -0.2107, 0.0105, 1.1461, 1.0464, -1.4317, 0.0100, 0.1328, -0.1106, 1051, 155363, 1.0000, 1.0000, -1.5000, 0.0000
14.9840, 0.2746, 0.1079, -9.7282, -0.1841, -0.2107, 0.0105, 1.1459, 1.0463, -1.4331, 0.0099, 0.1321, -0.1103, 1052, 155363, 1.0000, 1.0000, -1.5000, 0.0000
15.0040, 0.2746, 0.1079, -9.7282, -0.1841, -0.2107, 0.0105, 1.1458, 1.0463, -1.4348, 0.0102, 0.1321, -0.1097, 1053, 155363, 1.0000, 1.0000, -1.5000, 0.0000
15.0240, 0.2746, 0.1079, -9.7282, -0.1841, -0.2107, 0.0105, 1.1457, 1.0463, -1.4364, 0.0101, 0.1321, -0.1090, 1054, 155363, 0.9987, 0.9987, -1.4993, 0.0000
15.0440, 0.2746, 0.1079, -9.7282, -0.1841, -0.2107, 0.0105, 1.1455, 1.0464, -1.4379, 0.0106, 0.1322, -0.1086, 1055, 155363, 0.9920, 0.9920, -1.4960, 0.0000
15.0640, 0.2746, 0.1079, -9.7282, -0.1841, -0.2107, 0.0105, 1.1453, 1.0464, -1.4395, 0.0104, 0.1327, -0.1078, 1056, 155363, 0.9853, 0.9853, -1.4927, 0.0000
15.0840, 0.2746, 0.1079, -9.7282, -0.1841, -0.2107, 0.0105, 1.1452, 1.0464, -1.4410, 0.0103, 0.1321, -0.1074, 1057, 155363, 0.9787, 0.9787, -1.4893, 0.0000
15.1040, 0.2746, 0.1079, -9.7282, -0.1841, -0.2107, 0.0105, 1.1450, 1.0467, -1.4425, 0.0106, 0.1320, -0.1069, 1058, 155363, 0.9720, 0.9720, -1.4860, 0.0000
15.1240, 0.2746, 0.1079, -9.7282, -0.1841, -0.2107, 0.0105, 1.1448, 1.0466, -1.4440, 0.0108, 0.1320, -0.1061, 1059, 155363, 0.9653, 0.9653, -1.4827, 0.0000
15.1440, 0.2746, 0.1079, -9.7282, -0.1841, -0.2107, 0.0105, 1.1445, 1.0468, -1.4453, 0.0109, 0.1321, -0.1064, 1060, 155363, 0.9587, 0.9587, -1.4793, 0.0000
15.1640, 0.2746, 0.1079, -9.7282, -0.1841, -0.2107, 0.0105, 1.1443, 1.0470, -1.4467, 0.0113, 0.1328, -0.1063, 1061, 155363, 0.9520, 0.9520, -1.4760, 0.0000
15.1840, 0.2746, 0.1079, -9.7282, -0.1841, -0.2107, 0.0105, 1.1440, 1.0472, -1.4481, 0.0114, 0.1336, -0.1071, 1062, 155363, 0.9453, 0.9453, -1.4727, 0.0000
15.2040, 0.2746, 0.1079, -9.7282, -0.1841, -0.2107, 0.0105, 1.1438, 1.0475, -1.4495, 0.0117, 0.1344, -0.1077, 1063, 155363, 0.9387, 0.9387, -1.4693, 0.0000
15.2240, 0.2746, 0.1079, -9.7282, -0.1841, -0.2107, 0.0105, 1.1435, 1.0476, -1.4507, 0.0119, 0.1357, -0.1089, 1064, 155363, 0.9320, 0.9320, -1.4660, 0.0000
15.2440, 0.2746, 0.1079, -9.7282, -0.1841, -0.2107, 0.0105, 1.1431, 1.0479, -1.4519, 0.0121, 0.1364, -0.1100, 1065, 155363, 0.9253, 0.9253, -1.4627, 0.0000
15.2640, 0.2746, 0.1079, -9.7282, -0.1841, -0.2107, 0.0105, 1.1427, 1.0482, -1.4531, 0.0125, 0.1376, -0.1110, 1066, 155363, 0.9187, 0.9187, -1.4593, 0.0000
15.2840, 0.2746, 0.1079, -9.7282, -0.1841, -0.2107, 0.0105, 1.1423, 1.0485, -1.4543, 0.0128, 0.1386, -0.1123, 1067, 155363, 0.9120, 0.9120, -1.4560, 0.0000
15.3040, 0.2746, 0.1079, -9.7282, -0.1841, -0.2107, 0.0105, 1.1418, 1.0489, -1.4552, 0.0130, 0.1396, -0.1140, 1068, 155363, 0.9053, 0.9053, -1.4527, 0.0000
15.3240, 0.2746, 0.1079, -9.7282, -0.1841, -0.2107, 0.0105, 1.1414, 1.0490, -1.4564, 0.0135, 0.1425, -0.1150, 1069, 155363, 0.8987, 0.8987, -1.4493, 0.0000
15.3440, 0.2746, 0.1079, -9.7282, -0.1841, -0.2107, 0.0105, 1.1407, 1.0493, -1.4572, 0.0140, 0.1441, -0.1170, 1070, 155363, 0.8920, 0.8920, -1.4460, 0.0000
15.3640, 0.2746, 0.1079, -9.7282, -0.1841, -0.2107, 0.0105, 1.1401, 1.0496, -1.4582, 0.0145, 0.1455, -0.1185, 1071, 155363, 0.8853, 0.8853, -1.4427, 0.0000
15.3840, 0.2746, 0.1079, -9.7282, -0.1841, -0.2107, 0.0105, 1.1394, 1.0498, -1.4590, 0.0145, 0.1470, -0.1204, 1072, 155363, 0.8787, 0.8787, -1.4393, 0.0000
15.4040, 0.2746, 0.1079, -9.7282, -0.1841, -0.2107, 0.0105, 1.1387, 1.0501, -1.4598, 0.0154, 0.1482, -0.1224, 1073, 155363, 0.8720, 0.8720, -1.4360, 0.0000
15.4240, 0.2746, 0.1079, -9.7282, -0.1841, -0.2107, 0.0105, 1.1379, 1.0501, -1.4606, 0.0155, 0.1498, -0.1244, 1074, 155363, 0.8653, 0.8653, -1.4327, 0.0000
15.4440, 0.2746, 0.1079, -9.7282, -0.1841, -0.2107, 0.0105, 1.1371, 1.0503, -1.4613, 0.0157, 0.1514, -0.1253, 1075, 155363, 0.8587, 0.8587, -1.4293, 0.0000
15.4640, 0.2746, 0.1079, -9.7282, -0.1841, -0.2107, 0.0105, 1.1361, 1.0504, -1.4619, 0.0164, 0.1531, -0.1277, 1076, 155363, 0.8520, 0.8520, -1.4260, 0.0000
