time (s), accel_x (m/s^2), accel_y (m/s^2), accel_z (m/s^2), gyro_x (rad/s), gyro_y (rad/s), gyro_z (rad/s), x (m), y (m), z (m), yaw (rad), pitch (rad), roll (rad), mocap_counter, counter, desired x, desired y, desired z, desired yaw,planner x,planner y,planner z,1,2,3
0,0,0,0,0,0,0,0.0451,-0.0026,-0.0843,0,0.0011,0.0014,188,46042,-0.0016,0,0.001,0,0,0,0,1.0601,0.0135,-0.6586
0.021,0,0,0,0,0,0,0.0449,-0.0024,-0.0841,0,0.001,0.0015,189,46042,-0.0013,0,0.0008,0,0,0,0,1.0602,0.0136,-0.6586
0.041,0,0,0,0,0,0,0.0449,-0.0024,-0.0843,0.0003,0.0009,0.0014,190,46042,-0.0015,0,0.0009,0,0,0,0,1.0601,0.0137,-0.6587
0.061,0,0,0,0,0,0,0.045,-0.0025,-0.0842,0,0.0014,0.0017,191,46042,-0.0014,0,0.0009,0,0,0,0,1.0601,0.0136,-0.6586
0.081,0,0,0,0,0,0,0.045,-0.0026,-0.0842,0.0002,0.0011,0.001,192,46042,-0.0014,0,0.0009,0,0,0,0,1.0602,0.0135,-0.6586
0.101,0,0,0,0,0,0,0.0449,-0.0025,-0.0843,0.0001,0.001,0.0015,193,46042,-0.0015,0,0.0009,0,0,0,0,1.0601,0.0136,-0.6586
0.121,0,0,0,0,0,0,0.0451,-0.0025,-0.0842,-0.0001,0.0008,0.0012,194,46042,-0.0013,0,0.0008,0,0,0,0,1.0602,0.0137,-0.6586
0.141,0,0,0,0,0,0,0.0452,-0.0027,-0.0843,-0.0001,0.0006,0.0012,195,46042,-0.0015,0,0.001,0,0,0,0,1.0601,0.0136,-0.6586
0.161,0,0,0,0,0,0,0.0451,-0.0026,-0.0842,-0.0002,0.0009,0.0012,196,46042,-0.0014,0,0.0009,0,0,0,0,1.0602,0.0136,-0.6586
0.181,0,0,0,0,0,0,0.0452,-0.0026,-0.0842,-0.0001,0.0009,0.0013,197,46042,-0.0014,0,0.0009,0,0,0,0,1.0602,0.0136,-0.6586
0.201,0,0,0,0,0,0,0.0449,-0.0024,-0.0843,0.0003,0.0008,0.001,198,46042,-0.0015,0,0.0009,0,0,0,0,1.0601,0.0136,-0.6586
0.221,0,0,0,0,0,0,0.045,-0.0025,-0.0842,-0.0001,0.0013,0.0016,199,46042,-0.0014,0,0.0009,0,0,0,0,1.0602,0.0136,-0.6586
0.241,0,0,0,0,0,0,0.045,-0.0026,-0.0842,0,0.0009,0.0011,200,46042,-0.0015,0,0.0009,0,0,0,0,1.0601,0.0136,-0.6586
0.261,0,0,0,0,0,0,0.045,-0.0025,-0.0843,0.0001,0.001,0.0012,201,46042,-0.0014,0,0.0009,0,0,0,0,1.0602,0.0137,-0.6586
0.281,0,0,0,0,0,0,0.045,-0.0025,-0.0842,0,0.0012,0.0015,202,46042,-0.0015,0,0.0009,0,0,0,0,1.0601,0.0136,-0.6586
0.301,0,0,0,0,0,0,0.045,-0.0026,-0.0842,0.0001,0.0007,0.0006,203,46042,-0.0015,0,0.0009,0,0,0,0,1.0601,0.0135,-0.6586
0.321,0,0,0,0,0,0,0.0452,-0.0026,-0.0842,0.0001,0.0009,0.0018,204,46042,-0.0014,0,0.0008,0,0,0,0,1.0602,0.0137,-0.6586
0.341,0,0,0,0,0,0,0.045,-0.0026,-0.0842,-0.0001,0.0008,0.0011,205,46042,-0.0015,0,0.0009,0,0,0,0,1.0602,0.0137,-0.6586
0.361,0,0,0,0,0,0,0.0449,-0.0025,-0.0843,0.0001,0.0012,0.0014,206,46042,-0.0014,0,0.0009,0,0,0,0,1.0601,0.0136,-0.6586
0.381,0,0,0,0,0,0,0.0449,-0.0024,-0.0841,0.0001,0.0012,0.0014,207,46042,-0.0015,0,0.0009,0,0,0,0,1.0601,0.0136,-0.6586
0.4,0,0,0,0,0,0,0.0449,-0.0025,-0.0842,0,0.0012,0.001,208,46042,-0.0015,0,0.0009,0,0,0,0,1.0601,0.0136,-0.6586
0.421,0,0,0,0,0,0,0.045,-0.0025,-0.0843,0.0003,0.0012,0.0011,209,46042,-0.0014,0,0.0009,0,0,0,0,1.0601,0.0137,-0.6587
0.441,0,0,0,0,0,0,0.0449,-0.0026,-0.0842,0,0.0013,0.0014,210,46042,-0.0015,0,0.0009,0,0,0,0,1.0601,0.0136,-0.6586
0.461,0,0,0,0,0,0,0.045,-0.0025,-0.0843,0.0001,0.0011,0.0011,211,46042,-0.0014,0,0.0009,0,0,0,0,1.0602,0.0136,-0.6586
0.481,0,0,0,0,0,0,0.045,-0.0025,-0.0841,0,0.001,0.0015,212,46042,-0.0015,0,0.0009,0,0,0,0,1.0601,0.0137,-0.6586
0.5,0,0,0,0,0,0,0.0451,-0.0026,-0.0843,-0.0001,0.0008,0.0014,213,46042,-0.0014,0,0.0009,0,0,0,0,1.0601,0.0136,-0.6586
0.521,0,0,0,0,0,0,0.0452,-0.0026,-0.0843,-0.0001,0.0009,0.0011,214,46042,-0.0015,0,0.0009,0,0,0,0,1.0601,0.0136,-0.6586
0.541,0,0,0,0,0,0,0.0452,-0.0026,-0.0842,0.0002,0.0007,0.001,215,46042,-0.0014,0,0.0009,0,0,0,0,1.0602,0.0136,-0.6586
0.561,0,0,0,0,0,0,0.0451,-0.0026,-0.0843,0,0.0012,0.0017,216,46042,-0.0014,0,0.0009,0,0,0,0,1.0602,0.0136,-0.6587
0.581,0,0,0,0,0,0,0.0449,-0.0025,-0.0842,0,0.0012,0.0014,217,46042,-0.0015,0,0.001,0,0,0,0,1.0601,0.0136,-0.6586
0.6,0,0,0,0,0,0,0.0449,-0.0025,-0.0843,0.0001,0.001,0.0012,218,46042,-0.0014,0,0.0009,0,0,0,0,1.0601,0.0136,-0.6586
0.621,0,0,0,0,0,0,0.0449,-0.0025,-0.0842,0.0001,0.0009,0.0013,219,46042,-0.0015,0,0.0009,0,0,0,0,1.0602,0.0136,-0.6586
0.641,0,0,0,0,0,0,0.045,-0.0025,-0.0841,0.0001,0.0007,0.0011,220,46042,-0.0014,0,0.0008,0,0,0,0,1.0602,0.0136,-0.6586
0.661,0,0,0,0,0,0,0.045,-0.0025,-0.0842,0.0002,0.0006,0.0012,221,46042,-0.0015,0,0.0009,0,0,0,0,1.0601,0.0136,-0.6586
0.681,0,0,0,0,0,0,0.045,-0.0026,-0.0842,-0.0002,0.001,0.0011,222,46042,-0.0014,0,0.0009,0,0,0,0,1.0602,0.0137,-0.6586
0.701,0,0,0,0,0,0,0.0452,-0.0026,-0.0842,0,0.0005,0.0014,223,46042,-0.0014,0,0.0009,0,0,0,0,1.0602,0.0136,-0.6586
0.721,0,0,0,0,0,0,0.045,-0.0025,-0.0843,0.0001,0.0006,0.0012,224,46042,-0.0015,0,0.0009,0,0,0,0,1.0601,0.0136,-0.6586
0.741,0,0,0,0,0,0,0.0451,-0.0026,-0.0841,-0.0001,0.0009,0.0013,225,46042,-0.0013,0,0.0008,0,0,0,0,1.0602,0.0136,-0.6586
0.761,0,0,0,0,0,0,0.0449,-0.0025,-0.0842,0.0001,0.0008,0.0006,226,46042,-0.0015,0,0.0009,0,0,0,0,1.0601,0.0136,-0.6586
0.781,0,0,0,0,0,0,0.0449,-0.0024,-0.0843,0.0002,0.0009,0.0012,227,46042,-0.0014,0,0.0009,0,0,0,0,1.0601,0.0137,-0.6586
0.8,0,0,0,0,0,0,0.045,-0.0025,-0.0842,-0.0001,0.0009,0.0013,228,46042,-0.0015,0,0.0009,0,0,0,0,1.0601,0.0136,-0.6587
0.821,0,0,0,0,0,0,0.0449,-0.0024,-0.0843,-0.0001,0.001,0.0012,229,46042,-0.0015,0,0.0009,0,0,0,0,1.0601,0.0135,-0.6586
0.841,0,0,0,0,0,0,0.0452,-0.0024,-0.0846,-0.0002,0.0006,0.0011,230,46042,-0.0014,0,0.0009,0,0,0,0,1.0602,0.0136,-0.6586
0.861,0,0,0,0,0,0,0.0453,-0.0023,-0.085,-0.0002,-0.0001,0.0011,231,46042,-0.0015,0,0.001,0,0,0,0,1.0601,0.0136,-0.6586
0.88,0,0,0,0,0,0,0.0452,-0.0022,-0.0854,0,-0.0001,0.0019,232,46042,-0.0014,0,0.0009,0,0,0,0,1.0601,0.0136,-0.6586
0.9,0,0,0,0,0,0,0.0453,-0.0023,-0.0858,0.0005,-0.001,0.0026,233,46042,-0.0015,0,0.0009,0,0,0,0,1.0602,0.0136,-0.6586
0.921,0,0,0,0,0,0,0.0453,-0.0022,-0.0868,0.0007,-0.0019,0.0042,234,46042,-0.0014,0,0.0008,0,0,0,0,1.0602,0.0136,-0.6586
0.941,0,0,0,0,0,0,0.0453,-0.0019,-0.088,0.0006,-0.0013,0.0086,235,46042,-0.0015,0,0.0009,0,0,0,0,1.0601,0.0136,-0.6587
0.961,0,0,0,0,0,0,0.045,-0.0017,-0.0895,0.0012,0.0021,0.0136,236,46042,-0.0015,0,0.0009,0,0,0,0,1.0601,0.0136,-0.6586
0.981,0,0,0,0,0,0,0.0449,-0.0013,-0.092,0.001,0.0043,0.0181,237,46042,-0.0014,0,0.0009,0,0,0,0,1.0602,0.0136,-0.6586
1,0,0,0,0,0,0,0.0447,-0.0011,-0.0948,0.0014,0.0047,0.0213,238,46042,-0.0014,0,0.0009,0,0,0,0,1.0602,0.0137,-0.6586
1.021,0,0,0,0,0,0,0.0445,-0.0009,-0.0982,0.0015,0.0064,0.0238,239,46042,-0.0015,0,0.0009,0,0,0,0,1.0601,0.0136,-0.6586
1.041,0,0,0,0,0,0,0.0442,-0.0007,-0.102,0.0018,0.0074,0.026,240,46042,-0.0014,0,0.0009,0,0,0,0,1.0601,0.0136,-0.6586
1.061,0,0,0,0,0,0,0.0439,-0.0003,-0.1059,0.0013,0.0088,0.0278,241,46042,-0.0015,0,0.001,0,0,0,0,1.0601,0.0136,-0.6585
1.081,0,0,0,0,0,0,0.0434,0,-0.1104,0.0018,0.0101,0.0286,242,46042,-0.0013,0,0.0008,0,0,0,0,1.0601,0.0136,-0.6587
1.1,0,0,0,0,0,0,0.043,0.0004,-0.1151,0.0018,0.0118,0.0284,243,46042,-0.0015,0,0.001,0,0,0,0,1.0601,0.0136,-0.6586
1.121,0,0,0,0,0,0,0.0425,0.0007,-0.12,0.0016,0.0128,0.0279,244,46042,-0.0014,0,0.0008,0,0,0,0,1.0602,0.0135,-0.6586
1.141,0,0,0,0,0,0,0.0418,0.0014,-0.1249,0.0018,0.0135,0.0292,245,46042,-0.0015,0,0.0009,0,0,0,0,1.0601,0.0136,-0.6586
1.161,0,0,0,0,0,0,0.0413,0.002,-0.13,0.0017,0.0128,0.0294,246,46042,-0.0014,0,0.0009,0,0,0,0,1.0602,0.0137,-0.6586
1.181,0,0,0,0,0,0,0.0405,0.0027,-0.1352,0.0015,0.0131,0.0295,247,46042,-0.0015,0,0.0009,0,0,0,0,1.0601,0.0135,-0.6586
1.2,0,0,0,0,0,0,0.0396,0.0037,-0.1406,0.0014,0.0132,0.0293,248,46042,-0.0014,0,0.0009,0,0,0,0,1.0602,0.0136,-0.6586
1.221,0,0,0,0,0,0,0.0386,0.0046,-0.146,0.0014,0.013,0.0281,249,46042,-0.0014,0,0.0009,0,0,0,0,1.0601,0.0137,-0.6588
1.241,0,0,0,0,0,0,0.0374,0.0056,-0.1514,0.0014,0.0134,0.0293,250,46042,-0.0015,0,0.0009,0,0,0,0,1.0601,0.0136,-0.6587
1.261,0,0,0,0,0,0,0.0361,0.0067,-0.1566,0.0013,0.013,0.0287,251,46042,-0.0014,0,0.0009,0,0,0,0,1.0601,0.0136,-0.6586
1.281,0,0,0,0,0,0,0.0347,0.0079,-0.1619,0.0011,0.0126,0.0285,252,46042,-0.0015,0,0.0009,0,0,0,0,1.0601,0.0136,-0.6587
1.3,0,0,0,0,0,0,0.0333,0.0091,-0.167,0.001,0.0119,0.0279,253,46042,-0.0014,0,0.0009,0,0,0,0,1.0601,0.0136,-0.6586
1.321,0,0,0,0,0,0,0.0318,0.0103,-0.172,0.0011,0.0107,0.0268,254,46042,-0.0014,0,0.0009,0,0,0,0,1.0602,0.0136,-0.6586
1.34,0,0,0,0,0,0,0.0302,0.0117,-0.1767,0.0008,0.0088,0.0254,255,46042,-0.0015,0,0.0009,0,0,0,0,1.0601,0.0136,-0.6586
1.36,0,0,0,0,0,0,0.0287,0.0132,-0.1812,0.0008,0.0074,0.0248,256,46042,-0.0014,0,0.0008,0,0,0,0,1.0602,0.0137,-0.6586
1.381,0,0,0,0,0,0,0.0271,0.0148,-0.1856,0.0007,0.0052,0.0237,257,46042,-0.0015,0,0.001,0,0,0,0,1.0601,0.0136,-0.6586
1.4,0,0,0,0,0,0,0.0254,0.0164,-0.1896,0.0007,0.003,0.0221,258,46042,-0.0014,0,0.0009,0,0,0,0,1.0601,0.0136,-0.6585
1.421,0,0,0,0,0,0,0.0238,0.0181,-0.1932,0.0009,0.0004,0.0209,259,46042,-0.0014,0,0.0009,0,0,0,0,1.0602,0.0136,-0.6586
1.441,0,0,0,0,0,0,0.0221,0.0198,-0.1968,0.001,-0.0023,0.0193,260,46042,-0.0015,0,0.001,0,0,0,0,1.0601,0.0136,-0.6586
1.461,0,0,0,0,0,0,0.0203,0.0216,-0.2001,0.0005,-0.0036,0.02,261,46042,-0.0014,0,0.0009,0,0,0,0,1.0601,0.0136,-0.6586
1.481,0,0,0,0,0,0,0.0185,0.0233,-0.203,0.0001,-0.0052,0.0192,262,46042,-0.0015,0,0.0009,0,0,0,0,1.0602,0.0135,-0.6586
1.5,0,0,0,0,0,0,0.0167,0.0255,-0.2058,0.0002,-0.0067,0.0187,263,46042,-0.0014,0,0.0008,0,0,0,0,1.0602,0.0137,-0.6587
1.521,0,0,0,0,0,0,0.0149,0.0273,-0.2084,-0.0002,-0.0083,0.0183,264,46042,-0.0015,0,0.0009,0,0,0,0,1.0601,0.0137,-0.6586
1.541,0,0,0,0,0,0,0.0132,0.0293,-0.2107,-0.0005,-0.01,0.0173,265,46042,-0.0014,0,0.0009,0,0,0,0,1.0601,0.0136,-0.6586
1.561,0,0,0,0,0,0,0.0115,0.0314,-0.213,-0.0007,-0.0118,0.0164,266,46042,-0.0015,0,0.0009,0,0,0,0,1.0601,0.0136,-0.6586
1.581,0,0,0,0,0,0,0.0098,0.0335,-0.215,-0.001,-0.0131,0.0165,267,46042,-0.0014,0,0.0009,0,0,0,0,1.0602,0.0137,-0.6586
1.6,0,0,0,0,0,0,0.0081,0.0355,-0.2172,-0.0009,-0.0146,0.0149,268,46042,-0.0015,0,0.0009,0,0,0,0,1.0602,0.0136,-0.6586
1.62,0,0,0,0,0,0,0.0064,0.0375,-0.2192,-0.0013,-0.0156,0.0129,269,46042,-0.0014,0,0.0009,0,0,0,0,1.0601,0.0136,-0.6586
1.641,0,0,0,0,0,0,0.0047,0.0397,-0.221,-0.0013,-0.0167,0.0115,270,46042,-0.0014,0,0.0009,0,0,0,0,1.0602,0.0136,-0.6586
1.661,0,0,0,0,0,0,0.0031,0.0416,-0.2229,-0.0014,-0.0178,0.0093,271,46042,-0.0014,0,0.0009,0,0,0,0,1.0602,0.0136,-0.6587
1.681,0,0,0,0,0,0,0.0016,0.0437,-0.2248,-0.0013,-0.0188,0.0075,272,46042,-0.0015,0,0.0009,0,0,0,0,1.0601,0.0136,-0.6586
1.7,0,0,0,0,0,0,0,0.0456,-0.2267,-0.0017,-0.02,0.0051,273,46042,-0.0013,0,0.0008,0,0,0,0,1.0602,0.0136,-0.6586
1.721,0,0,0,0,0,0,-0.0016,0.0477,-0.2284,-0.0024,-0.0208,0.0029,274,46042,-0.0016,0,0.001,0,0,0,0,1.0601,0.0136,-0.6585
1.741,0,0,0,0,0,0,-0.003,0.0496,-0.2303,-0.0023,-0.0216,0.0016,275,46042,-0.0013,0,0.0008,0,0,0,0,1.0602,0.0136,-0.6587
1.761,0,0,0,0,0,0,-0.0043,0.0515,-0.2321,-0.0025,-0.0223,0.0005,276,46042,-0.0015,0,0.0009,0,0,0,0,1.0601,0.0136,-0.6587
1.781,0,0,0,0,0,0,-0.0056,0.0535,-0.2336,-0.0033,-0.023,-0.0008,277,46042,-0.0014,0,0.0009,0,0,0,0,1.0602,0.0136,-0.6585
1.8,0,0,0,0,0,0,-0.0069,0.0553,-0.2354,-0.0032,-0.0239,-0.0013,278,46042,-0.0014,0,0.0009,0,0,0,0,1.0602,0.0136,-0.6586
1.821,0,0,0,0,0,0,-0.0081,0.0571,-0.2369,-0.0034,-0.0247,-0.003,279,46042,-0.0015,0,0.001,0,0,0,0,1.0601,0.0136,-0.6586
1.841,0,0,0,0,0,0,-0.0092,0.0587,-0.2384,-0.0041,-0.0254,-0.0046,280,46042,-0.0013,0,0.0008,0,0,0,0,1.0602,0.0135,-0.6586
1.861,0,0,0,0,0,0,-0.0102,0.0603,-0.2397,-0.0042,-0.0261,-0.0065,281,46042,-0.0015,0,0.001,0,0,0,0,1.0601,0.0136,-0.6586
1.881,0,0,0,0,0,0,-0.0111,0.0621,-0.2411,-0.0047,-0.0261,-0.0074,282,46042,-0.0013,0,0.0008,0,0,0,0,1.0602,0.0137,-0.6586
1.9,0,0,0,0,0,0,-0.0119,0.0635,-0.2423,-0.0052,-0.0263,-0.0079,283,46042,-0.0015,0,0.0009,0,0,0,0,1.0602,0.0136,-0.6587
1.921,0,0,0,0,0,0,-0.0128,0.0649,-0.2434,-0.005,-0.0259,-0.0091,284,46042,-0.0015,0,0.0009,0,0,0,0,1.0601,0.0136,-0.6585
1.941,0,0,0,0,0,0,-0.0134,0.0662,-0.2445,-0.0056,-0.0259,-0.0089,285,46042,-0.0014,0,0.0008,0,0,0,0,1.0602,0.0137,-0.6586
1.961,0,0,0,0,0,0,-0.014,0.0676,-0.2455,-0.0059,-0.0259,-0.0095,286,46042,-0.0015,0,0.0009,0,0,0,0,1.0601,0.0136,-0.6586
1.981,0,0,0,0,0,0,-0.0146,0.0687,-0.2465,-0.0062,-0.0256,-0.0094,287,46042,-0.0013,0,0.0008,0,0,0,0,1.0602,0.0136,-0.6586
2.001,0,0,0,0,0,0,-0.0151,0.0698,-0.2474,-0.0067,-0.0255,-0.009,288,46042,-0.0015,0,0.001,0,0,0,0,1.0601,0.0136,-0.6586
2.021,0,0,0,0,0,0,-0.0155,0.071,-0.2482,-0.007,-0.0251,-0.0089,289,46042,-0.0014,0,0.0009,0,0,0,0,1.0601,0.0136,-0.6585
2.041,0,0,0,0,0,0,-0.0158,0.0719,-0.2491,-0.0072,-0.0242,-0.0082,290,46042,-0.0014,0,0.0009,0,0,0,0,1.0602,0.0136,-0.6586
2.061,0,0,0,0,0,0,-0.0161,0.0728,-0.2499,-0.0075,-0.0236,-0.0082,291,46042,-0.0015,0,0.0009,0,0,0,0,1.0601,0.0136,-0.6586
2.081,0,0,0,0,0,0,-0.0163,0.0736,-0.2505,-0.0079,-0.0233,-0.0087,292,46042,-0.0013,0,0.0008,0,0,0,0,1.0602,0.0136,-0.6586
2.1,0,0,0,0,0,0,-0.0163,0.0744,-0.2512,-0.0085,-0.0226,-0.0088,293,46042,-0.0016,0,0.001,0,0,0,0,1.0601,0.0136,-0.6586
2.121,0,0,0,0,0,0,-0.0163,0.075,-0.2518,-0.0087,-0.0222,-0.0089,294,46042,-0.0013,0,0.0008,0,0,0,0,1.0601,0.0136,-0.6587
2.141,0,0,0,0,0,0,-0.0163,0.0755,-0.2522,-0.009,-0.0211,-0.0086,295,46042,-0.0015,0,0.0009,0,0,0,0,1.0602,0.0136,-0.6586
2.161,0,0,0,0,0,0,-0.0163,0.076,-0.2527,-0.0092,-0.02,-0.0083,296,46042,-0.0014,0,0.0009,0,0,0,0,1.0601,0.0136,-0.6586
2.181,0,0,0,0,0,0,-0.0162,0.0765,-0.2531,-0.0094,-0.0187,-0.0072,297,46042,-0.0014,0,0.0009,0,0,0,0,1.0602,0.0137,-0.6587
2.2,0,0,0,0,0,0,-0.016,0.0767,-0.2536,-0.0099,-0.0181,-0.0068,298,46042,-0.0015,0,0.0009,0,0,0,0,1.0601,0.0136,-0.6586
2.221,0,0,0,0,0,0,-0.0157,0.077,-0.2539,-0.01,-0.0173,-0.0059,299,46042,-0.0014,0,0.0009,0,0,0,0,1.0602,0.0136,-0.6586
2.241,0,0,0,0,0,0,-0.0155,0.0772,-0.2544,-0.0102,-0.0161,-0.005,300,46042,-0.0014,0,0.0009,0,0,0,0,1.0602,0.0136,-0.6586
2.261,0,0,0,0,0,0,-0.0151,0.0774,-0.2547,-0.0104,-0.015,-0.004,301,46042,-0.0015,0,0.0009,0,0,0,0,1.0602,0.0136,-0.6586
2.281,0,0,0,0,0,0,-0.0148,0.0774,-0.2552,-0.0109,-0.014,-0.0022,302,46042,-0.0014,0,0.0009,0,0,0,0,1.0601,0.0136,-0.6586
2.3,0,0,0,0,0,0,-0.0144,0.0776,-0.2555,-0.0109,-0.0132,-0.0021,303,46042,-0.0015,0,0.0009,0,0,0,0,1.0602,0.0136,-0.6586
2.321,0,0,0,0,0,0,-0.0139,0.0775,-0.2559,-0.0113,-0.0124,-0.0013,304,46042,-0.0014,0,0.0009,0,0,0,0,1.0602,0.0136,-0.6586
2.341,0,0,0,0,0,0,-0.0134,0.0774,-0.2562,-0.0118,-0.0119,-0.0012,305,46042,-0.0015,0,0.0009,0,0,0,0,1.0601,0.0136,-0.6586
2.361,0,0,0,0,0,0,-0.0129,0.0773,-0.2564,-0.0122,-0.0111,-0.0008,306,46042,-0.0014,0,0.0009,0,0,0,0,1.0601,0.0136,-0.6586
2.381,0,0,0,0,0,0,-0.0124,0.0772,-0.2566,-0.0123,-0.0107,0.001,307,46042,-0.0015,0,0.0009,0,0,0,0,1.0602,0.0136,-0.6586
2.4,0,0,0,0,0,0,-0.0119,0.0771,-0.2568,-0.0131,-0.01,0.0023,308,46042,-0.0015,0,0.0009,0,0,0,0,1.0601,0.0136,-0.6585
2.421,0,0,0,0,0,0,-0.0113,0.0769,-0.257,-0.0131,-0.0093,0.0032,309,46042,-0.0014,0,0.0008,0,0,0,0,1.0602,0.0136,-0.6586
2.441,0,0,0,0,0,0,-0.0107,0.0767,-0.257,-0.0132,-0.008,0.004,310,46042,-0.0015,0,0.0009,0,0,0,0,1.0602,0.0136,-0.6586
2.461,0,0,0,0,0,0,-0.01,0.0764,-0.2572,-0.0137,-0.0072,0.0043,311,46042,-0.0013,0,0.0008,0,0,0,0,1.0602,0.0136,-0.6586
2.481,0,0,0,0,0,0,-0.0095,0.076,-0.2572,-0.0136,-0.0064,0.0037,312,46042,-0.0015,0,0.001,0,0,0,0,1.0601,0.0136,-0.6586
2.5,0,0,0,0,0,0,-0.0089,0.0756,-0.2572,-0.0136,-0.0054,0.004,313,46042,-0.0014,0,0.0009,0,0,0,0,1.0602,0.0136,-0.6586
2.521,0,0,0,0,0,0,-0.0083,0.0752,-0.2573,-0.0138,-0.0045,0.005,314,46042,-0.0014,0,0.0009,0,0,0,0,1.0602,0.0136,-0.6586
2.541,0,0,0,0,0,0,-0.0078,0.0749,-0.2573,-0.0139,-0.0035,0.0057,315,46042,-0.0015,0,0.001,0,0,0,0,1.0601,0.0136,-0.6586
2.56,0,0,0,0,0,0,-0.0072,0.0744,-0.2573,-0.0141,-0.0026,0.0066,316,46042,-0.0013,0,0.0008,0,0,0,0,1.0602,0.0136,-0.6586
2.581,0,0,0,0,0,0,-0.0067,0.0739,-0.2574,-0.0145,-0.0014,0.0082,317,46042,-0.0016,0,0.001,0,0,0,0,1.0601,0.0135,-0.6586
2.6,0,0,0,0,0,0,-0.0062,0.0737,-0.2574,-0.0147,-0.0009,0.0093,318,46042,-0.0014,0,0.0008,0,0,0,0,1.0602,0.0136,-0.6585
2.621,0,0,0,0,0,0,-0.0057,0.0732,-0.2575,-0.015,-0.0007,0.01,319,46042,-0.0015,0,0.0009,0,0,0,0,1.0602,0.0136,-0.6587
2.641,0,0,0,0,0,0,-0.0052,0.0727,-0.2576,-0.0156,-0.0012,0.0106,320,46042,-0.0014,0,0.0009,0,0,0,0,1.0601,0.0136,-0.6586
2.661,0,0,0,0,0,0,-0.0047,0.0723,-0.2577,-0.0157,-0.0013,0.0113,321,46042,-0.0014,0,0.0009,0,0,0,0,1.0602,0.0136,-0.6586
2.681,0,0,0,0,0,0,-0.0042,0.0719,-0.2578,-0.0156,-0.0018,0.0115,322,46042,-0.0015,0,0.0009,0,0,0,0,1.0601,0.0136,-0.6586
2.7,0,0,0,0,0,0,-0.0038,0.0714,-0.2579,-0.0159,-0.0016,0.0119,323,46042,-0.0014,0,0.0008,0,0,0,0,1.0602,0.0136,-0.6587
2.721,0,0,0,0,0,0,-0.0034,0.071,-0.2579,-0.0159,-0.0017,0.0121,324,46042,-0.0015,0,0.001,0,0,0,0,1.0601,0.0135,-0.6586
2.741,0,0,0,0,0,0,-0.003,0.0706,-0.2579,-0.0161,-0.0015,0.0122,325,46042,-0.0014,0,0.0009,0,0,0,0,1.0602,0.0136,-0.6586
2.761,0,0,0,0,0,0,-0.0026,0.0701,-0.2579,-0.0162,-0.001,0.0126,326,46042,-0.0015,0,0.0009,0,0,0,0,1.0602,0.0136,-0.6586
2.781,0,0,0,0,0,0,-0.0024,0.0698,-0.2579,-0.0165,-0.0003,0.012,327,46042,-0.0015,0,0.0009,0,0,0,0,1.0601,0.0136,-0.6586
2.8,0,0,0,0,0,0,-0.0021,0.0692,-0.2579,-0.0167,0.001,0.0127,328,46042,-0.0014,0,0.0009,0,0,0,0,1.0602,0.0136,-0.6586
2.821,0,0,0,0,0,0,-0.0018,0.0689,-0.2578,-0.017,0.0014,0.0129,329,46042,-0.0015,0,0.0009,0,0,0,0,1.0602,0.0136,-0.6586
2.84,0,0,0,0,0,0,-0.0016,0.0685,-0.2578,-0.0171,0.0019,0.0135,330,46042,-0.0014,0,0.0009,0,0,0,0,1.0601,0.0136,-0.6587
2.86,0,0,0,0,0,0,-0.0014,0.0681,-0.2579,-0.0169,0.0027,0.014,331,46042,-0.0015,0,0.0009,0,0,0,0,1.0601,0.0136,-0.6586
2.881,0,0,0,0,0,0,-0.0012,0.0677,-0.2579,-0.0175,0.003,0.0145,332,46042,-0.0014,0,0.0009,0,0,0,0,1.0602,0.0136,-0.6586
2.9,0,0,0,0,0,0,-0.001,0.0673,-0.258,-0.0173,0.0032,0.0146,333,46042,-0.0014,0,0.0009,0,0,0,0,1.0602,0.0136,-0.6587
2.921,0,0,0,0,0,0,-0.0009,0.0669,-0.2581,-0.0176,0.003,0.0145,334,46042,-0.0015,0,0.0009,0,0,0,0,1.0601,0.0136,-0.6586
2.94,0,0,0,0,0,0,-0.0009,0.0664,-0.2585,-0.0176,0.0032,0.0143,335,46042,-0.0014,0,0.0009,0,0,0,0,1.0601,0.0135,-0.6586
2.961,0,0,0,0,0,0,-0.0009,0.0661,-0.2585,-0.0174,0.0032,0.0137,336,46042,-0.0015,0,0.0009,0,0,0,0,1.0602,0.0136,-0.6585
2.981,0,0,0,0,0,0,-0.0009,0.0657,-0.2587,-0.0174,0.0031,0.0136,337,46042,-0.0014,0,0.0009,0,0,0,0,1.0602,0.0136,-0.6586
3,0,0,0,0,0,0,-0.0009,0.0653,-0.259,-0.0173,0.0024,0.0135,338,46042,-0.0015,0,0.0009,0,0,0,0,1.0601,0.0136,-0.6586
3.02,0,0,0,0,0,0,-0.0009,0.065,-0.2591,-0.0174,0.0021,0.0133,339,46042,-0.0015,0,0.0009,0,0,0,0,1.0601,0.0136,-0.6585
3.041,0,0,0,0,0,0,-0.001,0.0646,-0.2593,-0.0169,0.0013,0.0134,340,46042,-0.0014,0,0.0009,0,0,0,0,1.0602,0.0136,-0.6587
3.061,0,0,0,0,0,0,-0.001,0.0644,-0.2595,-0.0171,0.001,0.0136,341,46042,-0.0015,0,0.0009,0,0,0,0,1.0601,0.0137,-0.6586
3.081,0,0,0,0,0,0,-0.0011,0.064,-0.2598,-0.017,0.001,0.0136,342,46042,-0.0013,0,0.0008,0,0,0,0,1.0602,0.0136,-0.6586
3.1,0,0,0,0,0,0,-0.0013,0.0636,-0.26,-0.0166,0.0009,0.0135,343,46042,-0.0015,0,0.001,0,0,0,0,1.0602,0.0136,-0.6586
3.121,0,0,0,0,0,0,-0.0016,0.0633,-0.2601,-0.0169,0.0009,0.0135,344,46042,-0.0014,0,0.0009,0,0,0,0,1.0602,0.0137,-0.6586
3.141,0,0,0,0,0,0,-0.0018,0.063,-0.2604,-0.0168,0.0009,0.0139,345,46042,-0.0015,0,0.0009,0,0,0,0,1.0601,0.0136,-0.6587
3.161,0,0,0,0,0,0,-0.002,0.0627,-0.2605,-0.0165,0.0004,0.0141,346,46042,-0.0014,0,0.0009,0,0,0,0,1.0602,0.0136,-0.6586
3.18,0,0,0,0,0,0,-0.0021,0.0623,-0.2606,-0.0166,-0.0001,0.0144,347,46042,-0.0014,0,0.0009,0,0,0,0,1.0602,0.0136,-0.6585
3.2,0,0,0,0,0,0,-0.0024,0.0621,-0.2607,-0.0163,-0.001,0.0146,348,46042,-0.0015,0,0.0009,0,0,0,0,1.0601,0.0136,-0.6586
3.221,0,0,0,0,0,0,-0.0026,0.0618,-0.2608,-0.0163,-0.0018,0.0153,349,46042,-0.0014,0,0.0009,0,0,0,0,1.0601,0.0136,-0.6586
3.241,0,0,0,0,0,0,-0.0028,0.0615,-0.2608,-0.0161,-0.0029,0.0155,350,46042,-0.0015,0,0.0009,0,0,0,0,1.0601,0.0135,-0.6586
3.261,0,0,0,0,0,0,-0.003,0.0613,-0.2606,-0.0158,-0.004,0.0149,351,46042,-0.0014,0,0.0009,0,0,0,0,1.0602,0.0136,-0.6585
3.281,0,0,0,0,0,0,-0.0031,0.0611,-0.2606,-0.0156,-0.0048,0.0142,352,46042,-0.0014,0,0.0009,0,0,0,0,1.0602,0.0136,-0.6587
3.3,0,0,0,0,0,0,-0.0034,0.0608,-0.2606,-0.0159,-0.0049,0.0145,353,46042,-0.0016,0,0.001,0,0,0,0,1.0601,0.0136,-0.6586
3.321,0,0,0,0,0,0,-0.0036,0.0606,-0.2604,-0.0154,-0.0049,0.0147,354,46042,-0.0014,0,0.0009,0,0,0,0,1.0602,0.0136,-0.6586
3.341,0,0,0,0,0,0,-0.0039,0.0605,-0.2603,-0.0155,-0.005,0.0157,355,46042,-0.0015,0,0.0009,0,0,0,0,1.0602,0.0136,-0.6586
3.361,0,0,0,0,0,0,-0.004,0.0602,-0.2602,-0.0152,-0.0053,0.016,356,46042,-0.0014,0,0.0009,0,0,0,0,1.0602,0.0136,-0.6586
3.381,0,0,0,0,0,0,-0.0042,0.0601,-0.26,-0.0149,-0.0057,0.0159,357,46042,-0.0014,0,0.0009,0,0,0,0,1.0602,0.0136,-0.6586
3.4,0,0,0,0,0,0,-0.0045,0.0599,-0.2599,-0.0147,-0.0063,0.0165,358,46042,-0.0015,0,0.0009,0,0,0,0,1.0601,0.0136,-0.6586
3.421,0,0,0,0,0,0,-0.0046,0.0598,-0.2597,-0.0149,-0.0064,0.0173,359,46042,-0.0013,0,0.0008,0,0,0,0,1.0602,0.0136,-0.6586
3.441,0,0,0,0,0,0,-0.0049,0.0596,-0.2595,-0.0144,-0.0065,0.0173,360,46042,-0.0015,0,0.0009,0,0,0,0,1.0601,0.0136,-0.6586
3.461,0,0,0,0,0,0,-0.005,0.0595,-0.2594,-0.0146,-0.0067,0.0173,361,46042,-0.0014,0,0.0009,0,0,0,0,1.0602,0.0136,-0.6586
3.481,0,0,0,0,0,0,-0.0052,0.0594,-0.2592,-0.0145,-0.0072,0.0168,362,46042,-0.0014,0,0.0009,0,0,0,0,1.0602,0.0136,-0.6586
3.5,0,0,0,0,0,0,-0.0053,0.0594,-0.259,-0.0144,-0.0072,0.0161,363,46042,-0.0015,0,0.001,0,0,0,0,1.0601,0.0136,-0.6586
3.521,0,0,0,0,0,0,-0.0054,0.0592,-0.2591,-0.0141,-0.0074,0.0163,364,46042,-0.0013,0,0.0008,0,0,0,0,1.0601,0.0136,-0.6587
3.54,0,0,0,0,0,0,-0.0055,0.0592,-0.2588,-0.0139,-0.0074,0.0168,365,46042,-0.0016,0,0.001,0,0,0,0,1.0601,0.0135,-0.6586
3.561,0,0,0,0,0,0,-0.0055,0.0593,-0.2588,-0.0138,-0.0075,0.0173,366,46042,-0.0013,0,0.0008,0,0,0,0,1.0602,0.0137,-0.6586
3.581,0,0,0,0,0,0,-0.0057,0.0593,-0.2588,-0.0136,-0.008,0.0176,367,46042,-0.0015,0,0.0009,0,0,0,0,1.0601,0.0136,-0.6587
3.6,0,0,0,0,0,0,-0.0058,0.0593,-0.2588,-0.0135,-0.008,0.018,368,46042,-0.0014,0,0.0009,0,0,0,0,1.0601,0.0136,-0.6586
3.621,0,0,0,0,0,0,-0.0059,0.0594,-0.2588,-0.0134,-0.008,0.0184,369,46042,-0.0014,0,0.0009,0,0,0,0,1.0601,0.0136,-0.6586
3.641,0,0,0,0,0,0,-0.006,0.0596,-0.2587,-0.0135,-0.0078,0.0186,370,46042,-0.0014,0,0.0009,0,0,0,0,1.0602,0.0137,-0.6586
3.661,0,0,0,0,0,0,-0.0059,0.0596,-0.2587,-0.0132,-0.0074,0.0178,371,46042,-0.0013,0,0.0008,0,0,0,0,1.0602,0.0136,-0.6587
3.681,0,0,0,0,0,0,-0.006,0.0596,-0.2587,-0.0131,-0.0074,0.0172,372,46042,-0.0016,0,0.001,0,0,0,0,1.0601,0.0135,-0.6586
3.7,0,0,0,0,0,0,-0.006,0.0598,-0.2586,-0.013,-0.0075,0.017,373,46042,-0.0014,0,0.0008,0,0,0,0,1.0602,0.0137,-0.6586
3.721,0,0,0,0,0,0,-0.0061,0.0599,-0.2587,-0.013,-0.0072,0.0175,374,46042,-0.0015,0,0.0009,0,0,0,0,1.0601,0.0136,-0.6586
3.741,0,0,0,0,0,0,-0.0061,0.06,-0.2587,-0.0127,-0.0068,0.0171,375,46042,-0.0014,0,0.0009,0,0,0,0,1.0602,0.0136,-0.6586
3.761,0,0,0,0,0,0,-0.0061,0.0601,-0.2589,-0.0128,-0.0069,0.0173,376,46042,-0.0015,0,0.0009,0,0,0,0,1.0602,0.0136,-0.6586
3.781,0,0,0,0,0,0,-0.0061,0.0604,-0.2589,-0.0124,-0.0077,0.0176,377,46042,-0.0015,0,0.0009,0,0,0,0,1.0601,0.0136,-0.6586
3.8,0,0,0,0,0,0,-0.0061,0.0606,-0.2591,-0.0123,-0.0077,0.0183,378,46042,-0.0013,0,0.0008,0,0,0,0,1.0602,0.0136,-0.6586
3.821,0,0,0,0,0,0,-0.006,0.0607,-0.2592,-0.0123,-0.0082,0.0182,379,46042,-0.0015,0,0.0009,0,0,0,0,1.0601,0.0135,-0.6586
3.841,0,0,0,0,0,0,-0.006,0.061,-0.2592,-0.0119,-0.0081,0.0179,380,46042,-0.0013,0,0.0008,0,0,0,0,1.0602,0.0136,-0.6586
3.861,0,0,0,0,0,0,-0.006,0.0613,-0.2593,-0.0117,-0.0074,0.0181,381,46042,-0.0015,0,0.0009,0,0,0,0,1.0601,0.0136,-0.6587
3.881,0,0,0,0,0,0,-0.006,0.0615,-0.2594,-0.0117,-0.007,0.0179,382,46042,-0.0014,0,0.0009,0,0,0,0,1.0601,0.0136,-0.6586
3.9,0,0,0,0,0,0,-0.0058,0.0616,-0.2593,-0.0115,-0.0071,0.0171,383,46042,-0.0014,0,0.0009,0,0,0,0,1.0602,0.0135,-0.6586
3.921,0,0,0,0,0,0,-0.0058,0.062,-0.2593,-0.0111,-0.0075,0.0164,384,46042,-0.0014,0,0.0009,0,0,0,0,1.0602,0.0136,-0.6586
3.941,0,0,0,0,0,0,-0.0057,0.0624,-0.2593,-0.0113,-0.0073,0.0166,385,46042,-0.0014,0,0.0009,0,0,0,0,1.0602,0.0137,-0.6586
3.961,0,0,0,0,0,0,-0.0057,0.0627,-0.2592,-0.0109,-0.0075,0.0164,386,46042,-0.0015,0,0.0009,0,0,0,0,1.0601,0.0136,-0.6586
3.981,0,0,0,0,0,0,-0.0056,0.0631,-0.2592,-0.0109,-0.0076,0.0163,387,46042,-0.0014,0,0.0009,0,0,0,0,1.0601,0.0136,-0.6586
4,0,0,0,0,0,0,-0.0055,0.0635,-0.2592,-0.0109,-0.0073,0.0163,388,46042,-0.0014,0,0.0008,0,0,0,0,1.0602,0.0136,-0.6586
4.021,0,0,0,0,0,0,-0.0054,0.064,-0.2592,-0.0106,-0.0077,0.0159,389,46042,-0.0015,0,0.0009,0,0,0,0,1.0601,0.0136,-0.6586
4.041,0,0,0,0,0,0,-0.0052,0.0644,-0.2592,-0.0105,-0.008,0.0161,390,46042,-0.0014,0,0.0009,0,0,0,0,1.0601,0.0136,-0.6586
4.061,0,0,0,0,0,0,-0.0051,0.0649,-0.259,-0.0105,-0.0082,0.0163,391,46042,-0.0016,0,0.001,0,0,0,0,1.0601,0.0136,-0.6585
4.081,0,0,0,0,0,0,-0.0049,0.0654,-0.259,-0.0102,-0.0081,0.0168,392,46042,-0.0013,0,0.0008,0,0,0,0,1.0602,0.0136,-0.6586
4.1,0,0,0,0,0,0,-0.0048,0.0658,-0.2589,-0.0102,-0.0081,0.0167,393,46042,-0.0015,0,0.0009,0,0,0,0,1.0601,0.0136,-0.6587
4.121,0,0,0,0,0,0,-0.0046,0.0663,-0.2587,-0.01,-0.008,0.0168,394,46042,-0.0014,0,0.0009,0,0,0,0,1.0602,0.0136,-0.6586
4.141,0,0,0,0,0,0,-0.0044,0.0669,-0.2585,-0.0096,-0.0076,0.0166,395,46042,-0.0014,0,0.0009,0,0,0,0,1.0602,0.0136,-0.6586
4.161,0,0,0,0,0,0,-0.0043,0.0674,-0.2584,-0.0096,-0.0071,0.0162,396,46042,-0.0015,0,0.0009,0,0,0,0,1.0601,0.0136,-0.6586
4.181,0,0,0,0,0,0,-0.004,0.0679,-0.2582,-0.0093,-0.0065,0.0162,397,46042,-0.0014,0,0.0009,0,0,0,0,1.0601,0.0136,-0.6586
4.2,0,0,0,0,0,0,-0.0038,0.0685,-0.258,-0.0089,-0.0066,0.0159,398,46042,-0.0015,0,0.0009,0,0,0,0,1.0602,0.0136,-0.6586
4.221,0,0,0,0,0,0,-0.0036,0.0691,-0.2577,-0.009,-0.0063,0.016,399,46042,-0.0014,0,0.0008,0,0,0,0,1.0602,0.0136,-0.6586
4.241,0,0,0,0,0,0,-0.0033,0.0698,-0.2575,-0.0087,-0.0062,0.0155,400,46042,-0.0015,0,0.0009,0,0,0,0,1.0601,0.0136,-0.6586
4.261,0,0,0,0,0,0,-0.0031,0.0702,-0.2572,-0.0083,-0.006,0.0145,401,46042,-0.0014,0,0.0009,0,0,0,0,1.0601,0.0136,-0.6586
4.281,0,0,0,0,0,0,-0.0028,0.0708,-0.257,-0.0083,-0.0053,0.0142,402,46042,-0.0014,0,0.0009,0,0,0,0,1.0602,0.0136,-0.6586
4.3,0,0,0,0,0,0,-0.0026,0.0716,-0.2567,-0.0078,-0.0044,0.0134,403,46042,-0.0014,0,0.0009,0,0,0,0,1.0601,0.0137,-0.6586
4.321,0,0,0,0,0,0,-0.0024,0.0721,-0.2565,-0.0076,-0.0034,0.0122,404,46042,-0.0014,0,0.0009,0,0,0,0,1.0601,0.0136,-0.6586
4.341,0,0,0,0,0,0,-0.0021,0.0727,-0.2563,-0.0072,-0.0032,0.0115,405,46042,-0.0015,0,0.0009,0,0,0,0,1.0601,0.0135,-0.6586
4.361,0,0,0,0,0,0,-0.0018,0.0734,-0.2561,-0.0071,-0.0031,0.0111,406,46042,-0.0014,0,0.0009,0,0,0,0,1.0602,0.0136,-0.6585
4.381,0,0,0,0,0,0,-0.0016,0.074,-0.2559,-0.0066,-0.0031,0.0106,407,46042,-0.0014,0,0.0009,0,0,0,0,1.0602,0.0136,-0.6586
4.4,0,0,0,0,0,0,-0.0014,0.0745,-0.2557,-0.0068,-0.0029,0.0105,408,46042,-0.0015,0,0.0009,0,0,0,0,1.0601,0.0136,-0.6586
4.421,0,0,0,0,0,0,-0.0013,0.0751,-0.2553,-0.0061,-0.0028,0.0099,409,46042,-0.0014,0,0.0009,0,0,0,0,1.0602,0.0136,-0.6585
4.441,0,0,0,0,0,0,-0.0011,0.0758,-0.2549,-0.006,-0.0025,0.0092,410,46042,-0.0015,0,0.0009,0,0,0,0,1.0601,0.0136,-0.6586
4.461,0,0,0,0,0,0,-0.0009,0.0764,-0.2544,-0.0059,-0.0022,0.0084,411,46042,-0.0014,0,0.0009,0,0,0,0,1.0602,0.0136,-0.6586
4.481,0,0,0,0,0,0,-0.0006,0.0769,-0.2538,-0.0056,-0.002,0.0079,412,46042,-0.0014,0,0.0009,0,0,0,0,1.0601,0.0136,-0.6586
4.5,0,0,0,0,0,0,-0.0005,0.0776,-0.2531,-0.0056,-0.0017,0.0079,413,46042,-0.0014,0,0.0009,0,0,0,0,1.0602,0.0136,-0.6586
4.521,0,0,0,0,0,0,-0.0003,0.0782,-0.2523,-0.0053,-0.0017,0.0074,414,46042,-0.0014,0,0.0009,0,0,0,0,1.0602,0.0137,-0.6586
4.541,0,0,0,0,0,0,-0.0002,0.0786,-0.2515,-0.0051,-0.0014,0.0075,415,46042,-0.0015,0,0.0009,0,0,0,0,1.0601,0.0136,-0.6586
4.561,0,0,0,0,0,0,-0.0001,0.0791,-0.2507,-0.0046,-0.0015,0.0064,416,46042,-0.0014,0,0.0008,0,0,0,0,1.0602,0.0136,-0.6586
4.581,0,0,0,0,0,0,0,0.0796,-0.25,-0.0045,-0.0016,0.0064,417,46042,-0.0015,0,0.0009,0,0,0,0,1.0602,0.0136,-0.6586
4.6,0,0,0,0,0,0,0,0.0801,-0.2492,-0.0042,-0.0022,0.0055,418,46042,-0.0015,0,0.0009,0,0,0,0,1.0601,0.0136,-0.6586
4.621,0,0,0,0,0,0,0.0001,0.0805,-0.2487,-0.004,-0.0028,0.0049,419,46042,-0.0014,0,0.0009,0,0,0,0,1.0602,0.0136,-0.6586
4.641,0,0,0,0,0,0,0.0001,0.0809,-0.248,-0.0039,-0.0031,0.0047,420,46042,-0.0015,0,0.0009,0,0,0,0,1.0601,0.0136,-0.6586
4.661,0,0,0,0,0,0,0.0001,0.0814,-0.2473,-0.0036,-0.0038,0.0044,421,46042,-0.0013,0,0.0008,0,0,0,0,1.0602,0.0136,-0.6586
4.681,0,0,0,0,0,0,0.0001,0.0817,-0.2468,-0.0035,-0.0039,0.0048,422,46042,-0.0015,0,0.001,0,0,0,0,1.0602,0.0137,-0.6586
4.7,0,0,0,0,0,0,0.0001,0.0819,-0.2462,-0.0033,-0.0044,0.0047,423,46042,-0.0014,0,0.0009,0,0,0,0,1.0601,0.0135,-0.6586
4.721,0,0,0,0,0,0,0,0.0822,-0.2457,-0.0029,-0.005,0.0047,424,46042,-0.0014,0,0.0009,0,0,0,0,1.0602,0.0136,-0.6586
4.741,0,0,0,0,0,0,0,0.0826,-0.2451,-0.003,-0.0053,0.0041,425,46042,-0.0015,0,0.0009,0,0,0,0,1.0602,0.0136,-0.6586
4.761,0,0,0,0,0,0,0,0.0828,-0.2446,-0.0025,-0.0059,0.0031,426,46042,-0.0014,0,0.0008,0,0,0,0,1.0602,0.0136,-0.6587
4.781,0,0,0,0,0,0,-0.0002,0.0829,-0.2442,-0.0025,-0.0061,0.0023,427,46042,-0.0016,0,0.001,0,0,0,0,1.0601,0.0136,-0.6585
4.8,0,0,0,0,0,0,-0.0003,0.0831,-0.2439,-0.0025,-0.0066,0.0022,428,46042,-0.0013,0,0.0008,0,0,0,0,1.0601,0.0136,-0.6586
4.821,0,0,0,0,0,0,-0.0004,0.0833,-0.2434,-0.002,-0.0065,0.002,429,46042,-0.0015,0,0.0009,0,0,0,0,1.0602,0.0136,-0.6587
4.841,0,0,0,0,0,0,-0.0005,0.0833,-0.2433,-0.0019,-0.0071,0.0018,430,46042,-0.0014,0,0.0009,0,0,0,0,1.0602,0.0136,-0.6586
4.861,0,0,0,0,0,0,-0.0005,0.0833,-0.2431,-0.0018,-0.0076,0.0018,431,46042,-0.0015,0,0.0009,0,0,0,0,1.0602,0.0135,-0.6586
4.881,0,0,0,0,0,0,-0.0007,0.0833,-0.2429,-0.0015,-0.0076,0.0022,432,46042,-0.0015,0,0.001,0,0,0,0,1.0601,0.0136,-0.6585
4.9,0,0,0,0,0,0,-0.0007,0.0833,-0.243,-0.0014,-0.0084,0.0027,433,46042,-0.0014,0,0.0009,0,0,0,0,1.0601,0.0136,-0.6586
4.921,0,0,0,0,0,0,-0.0007,0.0833,-0.2429,-0.0014,-0.0093,0.0033,434,46042,-0.0015,0,0.0009,0,0,0,0,1.0601,0.0136,-0.6586
4.941,0,0,0,0,0,0,-0.0007,0.0831,-0.2427,-0.0012,-0.0095,0.0028,435,46042,-0.0014,0,0.0008,0,0,0,0,1.0602,0.0136,-0.6586
4.961,0,0,0,0,0,0,-0.0007,0.0829,-0.2427,-0.0012,-0.0094,0.0025,436,46042,-0.0015,0,0.0009,0,0,0,0,1.0602,0.0136,-0.6586
4.981,0,0,0,0,0,0,-0.0007,0.0827,-0.2426,-0.001,-0.0095,0.0018,437,46042,-0.0015,0,0.0009,0,0,0,0,1.0601,0.0136,-0.6586
5,0,0,0,0,0,0,-0.0007,0.0822,-0.2425,-0.0007,-0.0097,0.0016,438,46042,-0.0014,0,0.0009,0,0,0,0,1.0601,0.0135,-0.6586
5.021,0,0,0,0,0,0,-0.0006,0.082,-0.2422,-0.0005,-0.0101,0.0013,439,46042,-0.0015,0,0.0009,0,0,0,0,1.0602,0.0136,-0.6585
5.041,0,0,0,0,0,0,-0.0005,0.0816,-0.2422,-0.0007,-0.0102,0.0018,440,46042,-0.0013,0,0.0004,0,0,0,-0.0028,1.0602,0.0137,-0.6586
5.061,0,0,0,0,0,0,-0.0005,0.0812,-0.2421,-0.0005,-0.0104,0.0028,441,46042,-0.0019,0,0,0,0,0,-0.0054,1.0601,0.0136,-0.6586
5.081,0,0,0,0,0,0,-0.0005,0.0809,-0.2421,-0.0007,-0.0103,0.0038,442,46042,-0.0019,0,-0.001,0,0,0,-0.0081,1.0601,0.0136,-0.6586
5.1,0,0,0,0,0,0,-0.0004,0.0805,-0.2421,-0.0004,-0.0099,0.0053,443,46042,-0.0026,0,-0.0019,0,0,0,-0.0107,1.0602,0.0136,-0.6587
5.121,0,0,0,0,0,0,-0.0003,0.0801,-0.2421,-0.0006,-0.0096,0.0066,444,46042,-0.0031,0,-0.003,0,0,0,-0.0132,1.0601,0.0136,-0.6586
5.141,0,0,0,0,0,0,-0.0001,0.0794,-0.2422,-0.0004,-0.009,0.0074,445,46042,-0.0037,0,-0.0043,0,0,0,-0.016,1.0602,0.0136,-0.6586
5.161,0,0,0,0,0,0,0,0.0789,-0.2421,-0.0003,-0.0093,0.0085,446,46042,-0.0045,-0.0001,-0.0056,0,0,0,-0.0186,1.0601,0.0136,-0.6586
5.181,0,0,0,0,0,0,0.0003,0.0784,-0.2422,-0.0002,-0.0095,0.0093,447,46042,-0.0052,-0.0001,-0.0071,0,0,0,-0.0213,1.0602,0.0136,-0.6585
5.2,0,0,0,0,0,0,0.0005,0.0779,-0.2423,-0.0005,-0.0094,0.0103,448,46042,-0.0059,-0.0001,-0.0087,0,0,0,-0.0239,1.0601,0.0137,-0.6587
5.22,0,0,0,0,0,0,0.0008,0.0773,-0.2423,-0.0001,-0.0093,0.0109,449,46042,-0.0069,-0.0001,-0.0102,0,0,0,-0.0264,1.0602,0.0136,-0.6586
5.241,0,0,0,0,0,0,0.001,0.0768,-0.2423,-0.0004,-0.0093,0.012,450,46042,-0.0077,-0.0001,-0.012,0,0,0,-0.029,1.0602,0.0136,-0.6586
5.261,0,0,0,0,0,0,0.0012,0.0763,-0.2423,-0.0004,-0.0087,0.0129,451,46042,-0.0087,-0.0001,-0.0136,0,0,0,-0.0318,1.0601,0.0137,-0.6586
5.281,0,0,0,0,0,0,0.0015,0.0757,-0.2423,-0.0001,-0.0082,0.0135,452,46042,-0.0095,-0.0001,-0.0155,0,0,0,-0.0345,1.0601,0.0136,-0.6586
5.3,0,0,0,0,0,0,0.0019,0.0751,-0.2421,-0.0002,-0.0077,0.0145,453,46042,-0.0106,-0.0001,-0.0172,0,0,0,-0.0371,1.0602,0.0135,-0.6585
5.321,0,0,0,0,0,0,0.0022,0.0747,-0.242,0,-0.0071,0.0153,454,46042,-0.0114,-0.0001,-0.0191,0,0,0,-0.0396,1.0602,0.0136,-0.6586
5.341,0,0,0,0,0,0,0.0026,0.0742,-0.2419,0.0004,-0.0062,0.0162,455,46042,-0.0126,-0.0002,-0.0209,0,0,0,-0.0424,1.0602,0.0136,-0.6586
5.361,0,0,0,0,0,0,0.0029,0.0737,-0.2417,0.0004,-0.0059,0.017,456,46042,-0.0135,-0.0002,-0.0229,0,0,0,-0.045,1.0601,0.0136,-0.6586
5.381,0,0,0,0,0,0,0.0032,0.0732,-0.2416,0.0007,-0.0055,0.0177,457,46042,-0.0145,-0.0002,-0.0248,0,0,0,-0.0477,1.0601,0.0135,-0.6586
5.4,0,0,0,0,0,0,0.0037,0.0728,-0.2412,0.0006,-0.0049,0.0181,458,46042,-0.0155,-0.0002,-0.0267,0,0,0,-0.0503,1.0601,0.0137,-0.6586
5.421,0,0,0,0,0,0,0.0041,0.0723,-0.2411,0.0006,-0.0041,0.0175,459,46042,-0.0165,-0.0002,-0.0287,0,0,0,-0.0528,1.0601,0.0136,-0.6586
5.441,0,0,0,0,0,0,0.0045,0.0719,-0.2409,0.001,-0.0035,0.0172,460,46042,-0.0176,-0.0002,-0.0306,0,0,0,-0.0556,1.0601,0.0135,-0.6586
5.461,0,0,0,0,0,0,0.0049,0.0716,-0.2405,0.0009,-0.003,0.0171,461,46042,-0.0186,-0.0002,-0.0326,0,0,0,-0.0582,1.0601,0.0136,-0.6585
5.481,0,0,0,0,0,0,0.0053,0.0713,-0.2404,0.001,-0.0023,0.0177,462,46042,-0.0197,-0.0003,-0.0346,0,0,0,-0.0609,1.0601,0.0136,-0.6586
5.5,0,0,0,0,0,0,0.0057,0.071,-0.2401,0.0008,-0.0012,0.0187,463,46042,-0.0208,-0.0003,-0.0366,0,0,0,-0.0635,1.0601,0.0136,-0.6585
5.521,0,0,0,0,0,0,0.0061,0.0707,-0.2399,0.0012,0.0001,0.0193,464,46042,-0.0216,-0.0003,-0.0387,0,0,0,-0.066,1.0602,0.0136,-0.6586
5.541,0,0,0,0,0,0,0.0065,0.0704,-0.2397,0.0011,0.0016,0.0197,465,46042,-0.0229,-0.0003,-0.0407,0,0,0,-0.0688,1.0601,0.0136,-0.6585
5.56,0,0,0,0,0,0,0.0069,0.0702,-0.2394,0.0014,0.0028,0.0191,466,46042,-0.0237,-0.0003,-0.0429,0,0,0,-0.0714,1.0602,0.0137,-0.6586
5.581,0,0,0,0,0,0,0.0072,0.0698,-0.2393,0.0016,0.0039,0.0191,467,46042,-0.025,-0.0003,-0.0447,0,0,0,-0.0739,1.0601,0.0135,-0.6587
5.6,0,0,0,0,0,0,0.0076,0.0696,-0.2392,0.0018,0.0049,0.0186,468,46042,-0.0258,-0.0003,-0.047,0,0,0,-0.0767,1.0601,0.0136,-0.6585
5.62,0,0,0,0,0,0,0.008,0.0695,-0.2391,0.002,0.0058,0.0186,469,46042,-0.0269,-0.0003,-0.049,0,0,0,-0.0792,1.0602,0.0136,-0.6586
5.641,0,0,0,0,0,0,0.0082,0.0692,-0.2392,0.0022,0.0069,0.0185,470,46042,-0.0281,-0.0004,-0.051,0,0,0,-0.0818,1.0601,0.0136,-0.6586
5.661,0,0,0,0,0,0,0.0085,0.069,-0.2393,0.0023,0.0075,0.0185,471,46042,-0.029,-0.0004,-0.0532,0,0,0,-0.0846,1.0601,0.0136,-0.6585
5.681,0,0,0,0,0,0,0.0087,0.069,-0.2394,0.0025,0.0081,0.0192,472,46042,-0.0302,-0.0004,-0.0552,0,0,0,-0.0873,1.0601,0.0136,-0.6586
5.7,0,0,0,0,0,0,0.0089,0.069,-0.2396,0.0027,0.0083,0.0193,473,46042,-0.0311,-0.0004,-0.0574,0,0,0,-0.0899,1.0602,0.0136,-0.6585
5.721,0,0,0,0,0,0,0.009,0.0689,-0.2398,0.0026,0.0085,0.0191,474,46042,-0.0322,-0.0004,-0.0595,0,0,0,-0.0924,1.0601,0.0136,-0.6586
5.741,0,0,0,0,0,0,0.0091,0.069,-0.24,0.0026,0.0088,0.0187,475,46042,-0.0333,-0.0004,-0.0616,0,0,0,-0.0952,1.0601,0.0135,-0.6586
5.761,0,0,0,0,0,0,0.0092,0.0689,-0.2403,0.0028,0.009,0.018,476,46042,-0.0343,-0.0004,-0.0638,0,0,0,-0.0978,1.0601,0.0136,-0.6586
5.781,0,0,0,0,0,0,0.0091,0.069,-0.2407,0.0027,0.0091,0.0174,477,46042,-0.0354,-0.0005,-0.0658,0,0,0,-0.1005,1.0601,0.0136,-0.6586
5.8,0,0,0,0,0,0,0.0092,0.069,-0.2411,0.0028,0.0097,0.0169,478,46042,-0.0363,-0.0005,-0.0681,0,0,0,-0.1031,1.0601,0.0136,-0.6586
5.821,0,0,0,0,0,0,0.0091,0.069,-0.2415,0.0029,0.0105,0.0162,479,46042,-0.0375,-0.0005,-0.0701,0,0,0,-0.1056,1.0601,0.0136,-0.6585
5.841,0,0,0,0,0,0,0.0089,0.0692,-0.2421,0.0029,0.011,0.0159,480,46042,-0.0384,-0.0005,-0.0724,0,0,0,-0.1084,1.0601,0.0136,-0.6585
5.861,0,0,0,0,0,0,0.0087,0.0692,-0.2426,0.0031,0.0112,0.016,481,46042,-0.0395,-0.0005,-0.0745,0,0,0,-0.111,1.0601,0.0136,-0.6586
5.881,0,0,0,0,0,0,0.0086,0.0693,-0.2431,0.0034,0.0113,0.0154,482,46042,-0.0406,-0.0005,-0.0766,0,0,0,-0.1137,1.0601,0.0135,-0.6585
5.9,0,0,0,0,0,0,0.0083,0.0695,-0.2437,0.0034,0.0116,0.0151,483,46042,-0.0415,-0.0005,-0.0789,0,0,0,-0.1163,1.0602,0.0136,-0.6586
5.921,0,0,0,0,0,0,0.0079,0.0697,-0.2442,0.0038,0.0122,0.0147,484,46042,-0.0426,-0.0005,-0.081,0,0,0,-0.1188,1.0601,0.0137,-0.6586
5.941,0,0,0,0,0,0,0.0076,0.0698,-0.2448,0.0041,0.0122,0.0143,485,46042,-0.0436,-0.0006,-0.0832,0,0,0,-0.1216,1.0601,0.0136,-0.6586
5.961,0,0,0,0,0,0,0.0072,0.0699,-0.2453,0.0043,0.0119,0.0137,486,46042,-0.0447,-0.0006,-0.0854,0,0,0,-0.1242,1.0601,0.0135,-0.6586
5.981,0,0,0,0,0,0,0.0068,0.0701,-0.2458,0.0048,0.0122,0.0135,487,46042,-0.0457,-0.0006,-0.0876,0,0,0,-0.1269,1.0602,0.0137,-0.6586
6,0,0,0,0,0,0,0.0062,0.0703,-0.2464,0.005,0.0119,0.0132,488,46042,-0.0467,-0.0006,-0.0898,0,0,0,-0.1295,1.0602,0.0136,-0.6586
6.021,0,0,0,0,0,0,0.0057,0.0705,-0.2468,0.0053,0.0118,0.0125,489,46042,-0.0478,-0.0006,-0.092,0,0,0,-0.132,1.0601,0.0136,-0.6586
6.041,0,0,0,0,0,0,0.0051,0.0707,-0.2473,0.0057,0.0123,0.012,490,46042,-0.0487,-0.0006,-0.0943,0,0,0,-0.1348,1.0602,0.0135,-0.6586
6.061,0,0,0,0,0,0,0.0043,0.071,-0.2479,0.0055,0.0125,0.0118,491,46042,-0.0498,-0.0006,-0.0965,0,0,0,-0.1374,1.0602,0.0136,-0.6586
6.081,0,0,0,0,0,0,0.0035,0.0712,-0.2484,0.0059,0.0124,0.0118,492,46042,-0.0508,-0.0007,-0.0988,0,0,0,-0.1401,1.0602,0.0136,-0.6586
6.1,0,0,0,0,0,0,0.0028,0.0713,-0.2491,0.0064,0.0121,0.0111,493,46042,-0.0519,-0.0007,-0.1009,0,0,0,-0.1427,1.0601,0.0136,-0.6587
6.121,0,0,0,0,0,0,0.002,0.0716,-0.2497,0.0063,0.012,0.0109,494,46042,-0.0529,-0.0007,-0.1032,0,0,0,-0.1452,1.0601,0.0136,-0.6586
6.141,0,0,0,0,0,0,0.0012,0.0718,-0.2503,0.0065,0.0113,0.01,495,46042,-0.0538,-0.0007,-0.1055,0,0,0,-0.148,1.0602,0.0136,-0.6586
6.161,0,0,0,0,0,0,0.0003,0.0719,-0.251,0.0069,0.0105,0.0098,496,46042,-0.055,-0.0007,-0.1077,0,0,0,-0.1506,1.0601,0.0135,-0.6586
6.181,0,0,0,0,0,0,-0.0006,0.0721,-0.2516,0.0068,0.0102,0.0094,497,46042,-0.0558,-0.0007,-0.11,0,0,0,-0.1533,1.0602,0.0136,-0.6585
6.2,0,0,0,0,0,0,-0.0017,0.0722,-0.2522,0.0068,0.0097,0.0087,498,46042,-0.057,-0.0007,-0.1122,0,0,0,-0.1559,1.0602,0.0136,-0.6586
6.221,0,0,0,0,0,0,-0.0028,0.0724,-0.2529,0.0071,0.0093,0.0077,499,46042,-0.0579,-0.0007,-0.1145,0,0,0,-0.1584,1.0601,0.0136,-0.6586
6.241,0,0,0,0,0,0,-0.0038,0.0724,-0.2536,0.0072,0.008,0.007,500,46042,-0.0589,-0.0008,-0.1168,0,0,0,-0.1612,1.0602,0.0136,-0.6587
6.261,0,0,0,0,0,0,-0.0049,0.0725,-0.2542,0.0077,0.0074,0.007,501,46042,-0.0601,-0.0008,-0.119,0,0,0,-0.1638,1.0601,0.0135,-0.6585
6.281,0,0,0,0,0,0,-0.006,0.0727,-0.255,0.0077,0.0066,0.0073,502,46042,-0.0608,-0.0008,-0.1214,0,0,0,-0.1665,1.0602,0.0136,-0.6585
6.3,0,0,0,0,0,0,-0.0071,0.0726,-0.2557,0.0077,0.006,0.0076,503,46042,-0.0621,-0.0008,-0.1236,0,0,0,-0.1691,1.0601,0.0136,-0.6586
6.321,0,0,0,0,0,0,-0.0082,0.0726,-0.2567,0.0079,0.006,0.0068,504,46042,-0.0629,-0.0008,-0.126,0,0,0,-0.1716,1.0601,0.0135,-0.6585
6.341,0,0,0,0,0,0,-0.0095,0.0726,-0.2575,0.008,0.0058,0.0074,505,46042,-0.064,-0.0008,-0.1282,0,0,0,-0.1744,1.0602,0.0136,-0.6585
6.361,0,0,0,0,0,0,-0.0107,0.0726,-0.2583,0.0079,0.0057,0.0075,506,46042,-0.065,-0.0008,-0.1306,0,0,0,-0.177,1.0601,0.0136,-0.6585
6.38,0,0,0,0,0,0,-0.0119,0.0725,-0.2593,0.0082,0.0053,0.0082,507,46042,-0.0659,-0.0008,-0.1329,0,0,0,-0.1797,1.0601,0.0136,-0.6585
6.4,0,0,0,0,0,0,-0.0131,0.0724,-0.2603,0.0082,0.0045,0.0086,508,46042,-0.067,-0.0009,-0.1352,0,0,0,-0.1822,1.0601,0.0135,-0.6585
6.421,0,0,0,0,0,0,-0.0144,0.0724,-0.2612,0.0087,0.0046,0.0094,509,46042,-0.068,-0.0009,-0.1375,0,0,0,-0.1848,1.0601,0.0136,-0.6584
6.441,0,0,0,0,0,0,-0.0157,0.0722,-0.2622,0.0086,0.005,0.0097,510,46042,-0.0689,-0.0009,-0.1399,0,0,0,-0.1876,1.0601,0.0136,-0.6585
6.461,0,0,0,0,0,0,-0.017,0.072,-0.2632,0.0087,0.005,0.0093,511,46042,-0.07,-0.0009,-0.1422,0,0,0,-0.1902,1.0601,0.0135,-0.6585
6.481,0,0,0,0,0,0,-0.0182,0.0719,-0.2642,0.0087,0.0049,0.0091,512,46042,-0.0707,-0.0009,-0.1447,0,0,0,-0.1929,1.0602,0.0136,-0.6586
6.5,0,0,0,0,0,0,-0.0195,0.0717,-0.265,0.0089,0.0045,0.01,513,46042,-0.0721,-0.0009,-0.1468,0,0,0,-0.1955,1.0601,0.0136,-0.6584
6.521,0,0,0,0,0,0,-0.0207,0.0716,-0.2661,0.0089,0.0038,0.0106,514,46042,-0.0726,-0.0009,-0.1494,0,0,0,-0.198,1.0601,0.0136,-0.6585
6.541,0,0,0,0,0,0,-0.0222,0.0714,-0.267,0.0092,0.0033,0.0106,515,46042,-0.0742,-0.0009,-0.1515,0,0,0,-0.2008,1.0601,0.0135,-0.6585
6.561,0,0,0,0,0,0,-0.0235,0.0713,-0.268,0.0094,0.0028,0.0119,516,46042,-0.0745,-0.001,-0.1542,0,0,0,-0.2034,1.0601,0.0136,-0.6584
6.581,0,0,0,0,0,0,-0.0247,0.0712,-0.269,0.0093,0.0019,0.0125,517,46042,-0.0759,-0.001,-0.1563,0,0,0,-0.2061,1.0602,0.0137,-0.6585
6.6,0,0,0,0,0,0,-0.026,0.0711,-0.27,0.0093,0.0012,0.0126,518,46042,-0.0767,-0.001,-0.1588,0,0,0,-0.2087,1.0601,0.0136,-0.6584
6.621,0,0,0,0,0,0,-0.0273,0.0708,-0.2711,0.0091,0.0003,0.0117,519,46042,-0.0777,-0.001,-0.1612,0,0,0,-0.2112,1.0601,0.0135,-0.6585
6.641,0,0,0,0,0,0,-0.0287,0.0707,-0.2721,0.0094,-0.0005,0.011,520,46042,-0.0788,-0.001,-0.1635,0,0,0,-0.214,1.06,0.0136,-0.6584
6.661,0,0,0,0,0,0,-0.03,0.0706,-0.2731,0.0093,-0.0007,0.0109,521,46042,-0.0794,-0.001,-0.1661,0,0,0,-0.2166,1.0601,0.0136,-0.6585
6.681,0,0,0,0,0,0,-0.0312,0.0703,-0.2741,0.009,-0.0011,0.0115,522,46042,-0.0808,-0.001,-0.1683,0,0,0,-0.2193,1.0601,0.0135,-0.6585
6.7,0,0,0,0,0,0,-0.0326,0.0701,-0.275,0.0086,-0.0015,0.0116,523,46042,-0.0814,-0.001,-0.1709,0,0,0,-0.2219,1.0601,0.0135,-0.6584
6.721,0,0,0,0,0,0,-0.034,0.07,-0.2762,0.0089,-0.0017,0.0119,524,46042,-0.0825,-0.0011,-0.1732,0,0,0,-0.2244,1.0601,0.0136,-0.6585
6.741,0,0,0,0,0,0,-0.0352,0.0699,-0.2772,0.0088,-0.0022,0.0121,525,46042,-0.0835,-0.0011,-0.1756,0,0,0,-0.2272,1.0601,0.0136,-0.6584
6.761,0,0,0,0,0,0,-0.0364,0.0697,-0.2784,0.009,-0.0028,0.0123,526,46042,-0.0843,-0.0011,-0.1781,0,0,0,-0.2298,1.0601,0.0135,-0.6585
6.78,0,0,0,0,0,0,-0.0378,0.0695,-0.2793,0.0089,-0.0034,0.0125,527,46042,-0.0853,-0.0011,-0.1805,0,0,0,-0.2325,1.0601,0.0136,-0.6585
6.8,0,0,0,0,0,0,-0.039,0.0693,-0.2804,0.0087,-0.0031,0.013,528,46042,-0.086,-0.0011,-0.1831,0,0,0,-0.235,1.0602,0.0136,-0.6585
6.821,0,0,0,0,0,0,-0.0403,0.069,-0.2814,0.0091,-0.0035,0.0135,529,46042,-0.0874,-0.0011,-0.1853,0,0,0,-0.2376,1.0601,0.0135,-0.6585
6.841,0,0,0,0,0,0,-0.0415,0.069,-0.2822,0.0092,-0.0039,0.0133,530,46042,-0.088,-0.0011,-0.1879,0,0,0,-0.2404,1.06,0.0135,-0.6584
6.861,0,0,0,0,0,0,-0.0428,0.0688,-0.283,0.0092,-0.0037,0.0136,531,46042,-0.0891,-0.0011,-0.1903,0,0,0,-0.243,1.0601,0.0135,-0.6584
6.881,0,0,0,0,0,0,-0.044,0.0688,-0.2839,0.009,-0.0036,0.0137,532,46042,-0.0898,-0.0011,-0.1929,0,0,0,-0.2457,1.0601,0.0136,-0.6586
6.9,0,0,0,0,0,0,-0.0453,0.0687,-0.2846,0.0094,-0.0031,0.0137,533,46042,-0.0911,-0.0012,-0.1952,0,0,0,-0.2483,1.06,0.0135,-0.6584
6.921,0,0,0,0,0,0,-0.0465,0.0684,-0.2853,0.0099,-0.0025,0.0136,534,46042,-0.0915,-0.0012,-0.1979,0,0,0,-0.2508,1.0601,0.0135,-0.6585
6.941,0,0,0,0,0,0,-0.0477,0.0684,-0.2861,0.0094,-0.0022,0.0136,535,46042,-0.0931,-0.0012,-0.2001,0,0,0,-0.2536,1.06,0.0136,-0.6584
6.961,0,0,0,0,0,0,-0.0488,0.0682,-0.2868,0.0098,-0.0022,0.0133,536,46042,-0.0932,-0.0012,-0.2029,0,0,0,-0.2562,1.0601,0.0136,-0.6585
6.981,0,0,0,0,0,0,-0.05,0.0681,-0.2875,0.0101,-0.0022,0.0128,537,46042,-0.0951,-0.0012,-0.2051,0,0,0,-0.2589,1.06,0.0135,-0.6584
7,0,0,0,0,0,0,-0.0511,0.0679,-0.2884,0.0099,-0.0022,0.0127,538,46042,-0.0949,-0.0012,-0.208,0,0,0,-0.2615,1.0601,0.0136,-0.6584
7.021,0,0,0,0,0,0,-0.0523,0.0678,-0.2892,0.0105,-0.0036,0.0127,539,46042,-0.097,-0.0012,-0.2101,0,0,0,-0.264,1.06,0.0135,-0.6585
7.041,0,0,0,0,0,0,-0.0533,0.0676,-0.2901,0.0107,-0.0059,0.0131,540,46042,-0.0967,-0.0012,-0.213,0,0,0,-0.2668,1.06,0.0135,-0.6585
7.061,0,0,0,0,0,0,-0.0542,0.0674,-0.2908,0.0105,-0.008,0.0134,541,46042,-0.0987,-0.0013,-0.2151,0,0,0,-0.2694,1.0601,0.0135,-0.6584
7.081,0,0,0,0,0,0,-0.0552,0.0674,-0.2917,0.0107,-0.0087,0.0136,542,46042,-0.0983,-0.0013,-0.2181,0,0,0,-0.2721,1.0601,0.0137,-0.6585
7.1,0,0,0,0,0,0,-0.0563,0.0671,-0.2926,0.0109,-0.0087,0.0135,543,46042,-0.1005,-0.0013,-0.2202,0,0,0,-0.2747,1.0601,0.0136,-0.6584
7.121,0,0,0,0,0,0,-0.0574,0.0669,-0.2935,0.0109,-0.0084,0.0138,544,46042,-0.1004,-0.0013,-0.2231,0,0,0,-0.2772,1.06,0.0136,-0.6584
7.141,0,0,0,0,0,0,-0.0583,0.0668,-0.2944,0.0112,-0.0076,0.0145,545,46042,-0.1022,-0.0013,-0.2253,0,0,0,-0.28,1.06,0.0135,-0.6584
7.161,0,0,0,0,0,0,-0.0593,0.0667,-0.2953,0.0113,-0.0068,0.0151,546,46042,-0.1019,-0.0013,-0.2283,0,0,0,-0.2826,1.0602,0.0136,-0.6585
7.181,0,0,0,0,0,0,-0.0603,0.0666,-0.2962,0.0115,-0.0064,0.0157,547,46042,-0.104,-0.0013,-0.2304,0,0,0,-0.2853,1.0601,0.0136,-0.6585
7.2,0,0,0,0,0,0,-0.0613,0.0663,-0.2974,0.0115,-0.0062,0.0161,548,46042,-0.1037,-0.0013,-0.2334,0,0,0,-0.2879,1.06,0.0135,-0.6585
7.221,0,0,0,0,0,0,-0.0622,0.0664,-0.2984,0.0118,-0.0056,0.017,549,46042,-0.1057,-0.0014,-0.2355,0,0,0,-0.2904,1.0601,0.0136,-0.6584
7.241,0,0,0,0,0,0,-0.0631,0.0663,-0.2997,0.0116,-0.0061,0.0179,550,46042,-0.1052,-0.0013,-0.2386,0,0,0,-0.2932,1.0602,0.0136,-0.6586
7.261,0,0,0,0,0,0,-0.064,0.0662,-0.3008,0.0119,-0.0052,0.0188,551,46042,-0.1077,-0.0014,-0.2406,0,0,0,-0.2958,1.06,0.0136,-0.6584
7.281,0,0,0,0,0,0,-0.0648,0.0661,-0.302,0.0117,-0.0047,0.0189,552,46042,-0.1069,-0.0014,-0.2438,0,0,0,-0.2985,1.0601,0.0135,-0.6585
7.3,0,0,0,0,0,0,-0.0656,0.0661,-0.3031,0.0122,-0.0048,0.019,553,46042,-0.1094,-0.0014,-0.2458,0,0,0,-0.3011,1.0601,0.0136,-0.6585
7.321,0,0,0,0,0,0,-0.0666,0.0662,-0.3043,0.012,-0.0045,0.0186,554,46042,-0.1085,-0.0014,-0.249,0,0,0,-0.3036,1.0601,0.0137,-0.6585
7.341,0,0,0,0,0,0,-0.0674,0.0661,-0.3054,0.0122,-0.0038,0.0189,555,46042,-0.1111,-0.0014,-0.251,0,0,0,-0.3064,1.0601,0.0135,-0.6585
7.361,0,0,0,0,0,0,-0.0681,0.0663,-0.3065,0.0122,-0.0035,0.0195,556,46042,-0.1102,-0.0014,-0.2542,0,0,0,-0.309,1.0601,0.0136,-0.6585
7.381,0,0,0,0,0,0,-0.069,0.0662,-0.3077,0.0124,-0.0031,0.0199,557,46042,-0.1128,-0.0014,-0.2562,0,0,0,-0.3117,1.0601,0.0136,-0.6584
7.4,0,0,0,0,0,0,-0.0699,0.0664,-0.3089,0.0125,-0.0024,0.0201,558,46042,-0.1119,-0.0014,-0.2594,0,0,0,-0.3143,1.0601,0.0136,-0.6586
7.421,0,0,0,0,0,0,-0.0707,0.0665,-0.3101,0.0124,-0.0017,0.0203,559,46042,-0.1145,-0.0015,-0.2614,0,0,0,-0.3168,1.0601,0.0135,-0.6584
7.441,0,0,0,0,0,0,-0.0715,0.0666,-0.3113,0.0127,-0.0009,0.0193,560,46042,-0.1135,-0.0015,-0.2647,0,0,0,-0.3196,1.0601,0.0136,-0.6585
7.46,0,0,0,0,0,0,-0.0724,0.0669,-0.3126,0.0128,-0.0001,0.0193,561,46042,-0.1162,-0.0015,-0.2667,0,0,0,-0.3222,1.0601,0.0137,-0.6584
7.48,0,0,0,0,0,0,-0.0732,0.067,-0.3139,0.0129,0.0004,0.0193,562,46042,-0.115,-0.0015,-0.27,0,0,0,-0.3247,1.0601,0.0136,-0.6585
7.5,0,0,0,0,0,0,-0.0741,0.0671,-0.3152,0.0128,0.0012,0.0198,563,46042,-0.1179,-0.0015,-0.2719,0,0,0,-0.3274,1.06,0.0135,-0.6585
7.521,0,0,0,0,0,0,-0.075,0.0675,-0.3163,0.0129,0.001,0.0187,564,46042,-0.1165,-0.0015,-0.2753,0,0,0,-0.33,1.0601,0.0137,-0.6585
7.54,0,0,0,0,0,0,-0.0758,0.0677,-0.3176,0.0133,0.0012,0.0182,565,46042,-0.1196,-0.0015,-0.2772,0,0,0,-0.3328,1.0601,0.0136,-0.6585
7.561,0,0,0,0,0,0,-0.0766,0.0681,-0.3189,0.0135,0.0013,0.0174,566,46042,-0.1181,-0.0015,-0.2806,0,0,0,-0.3353,1.0601,0.0136,-0.6585
7.581,0,0,0,0,0,0,-0.0776,0.0683,-0.32,0.0136,0.0014,0.0171,567,46042,-0.121,-0.0016,-0.2826,0,0,0,-0.3381,1.0601,0.0136,-0.6585
7.6,0,0,0,0,0,0,-0.0785,0.0687,-0.3213,0.0136,0.0017,0.0171,568,46042,-0.1199,-0.0015,-0.2859,0,0,0,-0.3407,1.06,0.0136,-0.6585
7.621,0,0,0,0,0,0,-0.0794,0.0691,-0.3226,0.0133,0.0018,0.0173,569,46042,-0.1225,-0.0016,-0.288,0,0,0,-0.3432,1.0601,0.0136,-0.6585
7.641,0,0,0,0,0,0,-0.0803,0.0695,-0.3239,0.0135,0.0017,0.0175,570,46042,-0.1215,-0.0016,-0.2912,0,0,0,-0.346,1.0601,0.0135,-0.6585
7.661,0,0,0,0,0,0,-0.0813,0.07,-0.3252,0.0134,0.0016,0.018,571,46042,-0.1241,-0.0016,-0.2934,0,0,0,-0.3486,1.0601,0.0136,-0.6584
7.681,0,0,0,0,0,0,-0.0821,0.0704,-0.3266,0.0133,0.0007,0.0176,572,46042,-0.1229,-0.0016,-0.2967,0,0,0,-0.3513,1.0601,0.0137,-0.6586
7.7,0,0,0,0,0,0,-0.083,0.0709,-0.3278,0.0137,0,0.0171,573,46042,-0.1257,-0.0016,-0.2988,0,0,0,-0.3539,1.0601,0.0136,-0.6585
7.721,0,0,0,0,0,0,-0.0839,0.0713,-0.3295,0.0137,-0.0003,0.0174,574,46042,-0.1243,-0.0016,-0.3021,0,0,0,-0.3564,1.0601,0.0135,-0.6585
7.741,0,0,0,0,0,0,-0.0848,0.0719,-0.3309,0.0139,-0.0008,0.0167,575,46042,-0.1275,-0.0016,-0.3041,0,0,0,-0.3592,1.06,0.0136,-0.6584
7.761,0,0,0,0,0,0,-0.0856,0.0725,-0.3326,0.0138,-0.001,0.017,576,46042,-0.1256,-0.0016,-0.3076,0,0,0,-0.3618,1.0601,0.0136,-0.6585
7.781,0,0,0,0,0,0,-0.0866,0.0728,-0.3344,0.0141,-0.0008,0.0167,577,46042,-0.1291,-0.0017,-0.3096,0,0,0,-0.3645,1.0601,0.0136,-0.6585
7.8,0,0,0,0,0,0,-0.0875,0.0735,-0.3362,0.0138,-0.0012,0.0165,578,46042,-0.1271,-0.0016,-0.3131,0,0,0,-0.3671,1.0601,0.0136,-0.6584
7.821,0,0,0,0,0,0,-0.0885,0.0742,-0.338,0.0142,-0.0015,0.0165,579,46042,-0.1306,-0.0017,-0.315,0,0,0,-0.3696,1.0601,0.0136,-0.6585
7.841,0,0,0,0,0,0,-0.0894,0.0747,-0.3399,0.0142,-0.0018,0.0156,580,46042,-0.1287,-0.0016,-0.3185,0,0,0,-0.3724,1.06,0.0136,-0.6584
7.86,0,0,0,0,0,0,-0.0904,0.0753,-0.342,0.0139,-0.0019,0.0149,581,46042,-0.1319,-0.0017,-0.3206,0,0,0,-0.375,1.0601,0.0135,-0.6585
7.881,0,0,0,0,0,0,-0.0913,0.0759,-0.3439,0.0139,-0.0021,0.0136,582,46042,-0.1302,-0.0017,-0.3239,0,0,0,-0.3775,1.06,0.0136,-0.6584
7.9,0,0,0,0,0,0,-0.0922,0.0764,-0.3458,0.0139,-0.002,0.0122,583,46042,-0.1332,-0.0017,-0.3261,0,0,0,-0.3803,1.0601,0.0136,-0.6584
7.921,0,0,0,0,0,0,-0.0931,0.077,-0.3478,0.014,-0.0018,0.0116,584,46042,-0.1317,-0.0017,-0.3294,0,0,0,-0.3828,1.0601,0.0136,-0.6585
7.941,0,0,0,0,0,0,-0.0941,0.0777,-0.3495,0.014,-0.0026,0.0117,585,46042,-0.1348,-0.0017,-0.3316,0,0,0,-0.3856,1.06,0.0136,-0.6584
7.961,0,0,0,0,0,0,-0.0948,0.0783,-0.3513,0.0141,-0.003,0.012,586,46042,-0.1328,-0.0017,-0.3351,0,0,0,-0.3882,1.0601,0.0136,-0.6585
7.981,0,0,0,0,0,0,-0.0959,0.079,-0.353,0.0138,-0.0026,0.0125,587,46042,-0.1364,-0.0017,-0.337,0,0,0,-0.3909,1.06,0.0136,-0.6585
8,0,0,0,0,0,0,-0.0967,0.0796,-0.3547,0.0138,-0.0033,0.0124,588,46042,-0.134,-0.0017,-0.3407,0,0,0,-0.3935,1.0601,0.0136,-0.6584
8.021,0,0,0,0,0,0,-0.0975,0.0802,-0.3562,0.0138,-0.0036,0.0125,589,46042,-0.1379,-0.0018,-0.3426,0,0,0,-0.396,1.0601,0.0135,-0.6585
8.041,0,0,0,0,0,0,-0.0983,0.081,-0.3579,0.0138,-0.0033,0.0123,590,46042,-0.1354,-0.0017,-0.3462,0,0,0,-0.3988,1.0601,0.0137,-0.6584
8.061,0,0,0,0,0,0,-0.0992,0.0815,-0.3595,0.0138,-0.0039,0.0122,591,46042,-0.1392,-0.0018,-0.3482,0,0,0,-0.4014,1.0601,0.0136,-0.6585
8.08,0,0,0,0,0,0,-0.1,0.0822,-0.3611,0.0137,-0.0041,0.0119,592,46042,-0.1368,-0.0018,-0.3518,0,0,0,-0.4041,1.06,0.0135,-0.6585
8.1,0,0,0,0,0,0,-0.1008,0.0829,-0.3625,0.0134,-0.0042,0.0122,593,46042,-0.1406,-0.0018,-0.3538,0,0,0,-0.4066,1.0601,0.0136,-0.6584
8.121,0,0,0,0,0,0,-0.1017,0.0835,-0.3641,0.0133,-0.004,0.0126,594,46042,-0.1382,-0.0018,-0.3574,0,0,0,-0.4092,1.06,0.0136,-0.6585
8.141,0,0,0,0,0,0,-0.1025,0.0842,-0.3657,0.0129,-0.0034,0.0121,595,46042,-0.1418,-0.0018,-0.3594,0,0,0,-0.412,1.0601,0.0136,-0.6585
8.161,0,0,0,0,0,0,-0.1033,0.0847,-0.3673,0.0132,-0.0031,0.0114,596,46042,-0.1394,-0.0018,-0.363,0,0,0,-0.4146,1.0601,0.0135,-0.6585
8.181,0,0,0,0,0,0,-0.104,0.0854,-0.3689,0.013,-0.0033,0.01,597,46042,-0.1433,-0.0018,-0.365,0,0,0,-0.4173,1.06,0.0136,-0.6584
8.2,0,0,0,0,0,0,-0.1049,0.086,-0.3706,0.0125,-0.0036,0.0088,598,46042,-0.1405,-0.0018,-0.3687,0,0,0,-0.4199,1.0601,0.0136,-0.6584
8.221,0,0,0,0,0,0,-0.1056,0.0867,-0.3721,0.0125,-0.0037,0.0069,599,46042,-0.1447,-0.0019,-0.3707,0,0,0,-0.4224,1.0601,0.0135,-0.6585
8.241,0,0,0,0,0,0,-0.1063,0.0871,-0.3739,0.0125,-0.0034,0.0058,600,46042,-0.1417,-0.0018,-0.3744,0,0,0,-0.4252,1.0601,0.0136,-0.6584
8.261,0,0,0,0,0,0,-0.107,0.0877,-0.3755,0.0121,-0.004,0.0048,601,46042,-0.146,-0.0019,-0.3763,0,0,0,-0.4278,1.0601,0.0136,-0.6584
8.281,0,0,0,0,0,0,-0.1077,0.0883,-0.3774,0.0118,-0.0039,0.0049,602,46042,-0.1429,-0.0018,-0.3801,0,0,0,-0.4305,1.0601,0.0136,-0.6585
8.3,0,0,0,0,0,0,-0.1084,0.0887,-0.3792,0.0117,-0.0038,0.0037,603,46042,-0.1473,-0.0019,-0.382,0,0,0,-0.4331,1.0601,0.0136,-0.6585
8.321,0,0,0,0,0,0,-0.109,0.0892,-0.381,0.0115,-0.0041,0.0035,604,46042,-0.144,-0.0018,-0.3858,0,0,0,-0.4356,1.0601,0.0136,-0.6585
8.341,0,0,0,0,0,0,-0.1098,0.0897,-0.3828,0.0116,-0.0044,0.0025,605,46042,-0.1486,-0.0019,-0.3877,0,0,0,-0.4384,1.0601,0.0136,-0.6585
8.361,0,0,0,0,0,0,-0.1103,0.0902,-0.3846,0.0115,-0.0043,0.0026,606,46042,-0.1453,-0.0019,-0.3915,0,0,0,-0.441,1.06,0.0136,-0.6584
8.381,0,0,0,0,0,0,-0.111,0.0905,-0.3865,0.0113,-0.0044,0.0025,607,46042,-0.1497,-0.0019,-0.3935,0,0,0,-0.4437,1.0601,0.0135,-0.6585
8.4,0,0,0,0,0,0,-0.1116,0.0908,-0.3883,0.011,-0.0051,0.0025,608,46042,-0.1464,-0.0019,-0.3972,0,0,0,-0.4463,1.0601,0.0136,-0.6585
8.421,0,0,0,0,0,0,-0.1122,0.0912,-0.3902,0.0107,-0.0053,0.0027,609,46042,-0.1511,-0.0019,-0.3992,0,0,0,-0.4488,1.0601,0.0136,-0.6584
8.44,0,0,0,0,0,0,-0.1128,0.0914,-0.3922,0.0107,-0.0051,0.0033,610,46042,-0.1473,-0.0019,-0.403,0,0,0,-0.4516,1.0601,0.0136,-0.6585
8.461,0,0,0,0,0,0,-0.1133,0.0916,-0.394,0.0106,-0.0041,0.0034,611,46042,-0.1525,-0.002,-0.4049,0,0,0,-0.4541,1.06,0.0135,-0.6584
8.481,0,0,0,0,0,0,-0.1138,0.0919,-0.3959,0.0106,-0.0035,0.0032,612,46042,-0.1482,-0.0019,-0.4088,0,0,0,-0.4569,1.0601,0.0136,-0.6585
8.5,0,0,0,0,0,0,-0.1145,0.092,-0.3978,0.0103,-0.0031,0.0032,613,46042,-0.1538,-0.002,-0.4106,0,0,0,-0.4595,1.0601,0.0136,-0.6586
8.52,0,0,0,0,0,0,-0.1149,0.0921,-0.3997,0.0102,-0.0023,0.003,614,46042,-0.1492,-0.0019,-0.4146,0,0,0,-0.462,1.0601,0.0136,-0.6585
8.541,0,0,0,0,0,0,-0.1152,0.0923,-0.4016,0.0105,-0.0012,0.0032,615,46042,-0.1551,-0.002,-0.4164,0,0,0,-0.4646,1.0601,0.0136,-0.6585
8.56,0,0,0,0,0,0,-0.1158,0.0923,-0.4035,0.0106,-0.0001,0.0037,616,46042,-0.1501,-0.0019,-0.4204,0,0,0,-0.4674,1.0601,0.0136,-0.6584
8.581,0,0,0,0,0,0,-0.1164,0.0923,-0.4055,0.0101,0.0004,0.0029,617,46042,-0.1563,-0.002,-0.4222,0,0,0,-0.4699,1.0601,0.0136,-0.6585
8.6,0,0,0,0,0,0,-0.1169,0.0923,-0.4074,0.0101,0.001,0.0028,618,46042,-0.151,-0.0019,-0.4262,0,0,0,-0.4727,1.06,0.0136,-0.6585
8.621,0,0,0,0,0,0,-0.1172,0.0923,-0.4092,0.0104,0.0014,0.0031,619,46042,-0.1574,-0.002,-0.428,0,0,0,-0.4752,1.0601,0.0136,-0.6585
8.641,0,0,0,0,0,0,-0.1178,0.0922,-0.4114,0.0102,0.0019,0.0036,620,46042,-0.1519,-0.0019,-0.4321,0,0,0,-0.478,1.0601,0.0136,-0.6585
8.661,0,0,0,0,0,0,-0.1183,0.0921,-0.4133,0.0097,0.0021,0.0034,621,46042,-0.1587,-0.002,-0.4338,0,0,0,-0.4806,1.0601,0.0136,-0.6585
8.68,0,0,0,0,0,0,-0.1188,0.0919,-0.4149,0.0095,0.0027,0.0032,622,46042,-0.1526,-0.002,-0.438,0,0,0,-0.4833,1.0601,0.0135,-0.6585
8.7,0,0,0,0,0,0,-0.1193,0.0919,-0.4167,0.0096,0.0039,0.0038,623,46042,-0.1601,-0.0021,-0.4396,0,0,0,-0.4858,1.0601,0.0136,-0.6585
8.721,0,0,0,0,0,0,-0.1199,0.0916,-0.4186,0.0095,0.0045,0.0041,624,46042,-0.1532,-0.002,-0.4439,0,0,0,-0.4884,1.0601,0.0136,-0.6585
8.741,0,0,0,0,0,0,-0.1203,0.0915,-0.4203,0.0094,0.0049,0.0046,625,46042,-0.1615,-0.0021,-0.4454,0,0,0,-0.4912,1.06,0.0135,-0.6585
8.76,0,0,0,0,0,0,-0.1207,0.0913,-0.422,0.0091,0.0052,0.0054,626,46042,-0.1538,-0.002,-0.4498,0,0,0,-0.4938,1.0601,0.0136,-0.6585
8.781,0,0,0,0,0,0,-0.1213,0.0911,-0.4237,0.009,0.0057,0.0056,627,46042,-0.1628,-0.0021,-0.4513,0,0,0,-0.4963,1.0601,0.0136,-0.6585
8.8,0,0,0,0,0,0,-0.122,0.0908,-0.4255,0.0088,0.0061,0.0056,628,46042,-0.1544,-0.002,-0.4557,0,0,0,-0.4991,1.06,0.0136,-0.6585
8.821,0,0,0,0,0,0,-0.1225,0.0905,-0.4272,0.0089,0.0058,0.0066,629,46042,-0.1641,-0.0021,-0.4571,0,0,0,-0.5016,1.0601,0.0135,-0.6585
8.84,0,0,0,0,0,0,-0.1231,0.0904,-0.4289,0.0083,0.0058,0.0083,630,46042,-0.155,-0.002,-0.4617,0,0,0,-0.5044,1.0601,0.0136,-0.6584
8.861,0,0,0,0,0,0,-0.1238,0.09,-0.4306,0.0085,0.0059,0.0087,631,46042,-0.1654,-0.0021,-0.463,0,0,0,-0.5069,1.0601,0.0136,-0.6585
8.881,0,0,0,0,0,0,-0.1244,0.0896,-0.4324,0.0083,0.0056,0.0091,632,46042,-0.1554,-0.002,-0.4676,0,0,0,-0.5097,1.0601,0.0135,-0.6585
8.9,0,0,0,0,0,0,-0.1252,0.0893,-0.4341,0.0082,0.0056,0.0096,633,46042,-0.1668,-0.0021,-0.4689,0,0,0,-0.5123,1.0601,0.0136,-0.6584
8.92,0,0,0,0,0,0,-0.1257,0.0891,-0.4358,0.0083,0.0054,0.0098,634,46042,-0.1557,-0.002,-0.4736,0,0,0,-0.5148,1.0601,0.0136,-0.6585
8.941,0,0,0,0,0,0,-0.1265,0.0887,-0.4376,0.0081,0.005,0.0103,635,46042,-0.1684,-0.0022,-0.4747,0,0,0,-0.5174,1.0601,0.0136,-0.6585
8.961,0,0,0,0,0,0,-0.127,0.0884,-0.4394,0.0081,0.0048,0.0112,636,46042,-0.1559,-0.002,-0.4796,0,0,0,-0.5202,1.0601,0.0136,-0.6585
8.981,0,0,0,0,0,0,-0.1278,0.0881,-0.4412,0.0082,0.0041,0.0112,637,46042,-0.1701,-0.0022,-0.4806,0,0,0,-0.5229,1.06,0.0135,-0.6584
9,0,0,0,0,0,0,-0.1286,0.0879,-0.4431,0.008,0.0034,0.0118,638,46042,-0.156,-0.002,-0.4857,0,0,0,-0.5255,1.0601,0.0136,-0.6585
9.021,0,0,0,0,0,0,-0.1293,0.0876,-0.445,0.0078,0.003,0.0118,639,46042,-0.1717,-0.0022,-0.4865,0,0,0,-0.528,1.0601,0.0136,-0.6585
9.041,0,0,0,0,0,0,-0.13,0.0872,-0.4471,0.0077,0.0032,0.0115,640,46042,-0.1561,-0.002,-0.4917,0,0,0,-0.5308,1.0601,0.0136,-0.6585
9.06,0,0,0,0,0,0,-0.1308,0.087,-0.4491,0.0076,0.0029,0.0114,641,46042,-0.1732,-0.0022,-0.4924,0,0,0,-0.5334,1.0601,0.0136,-0.6585
9.081,0,0,0,0,0,0,-0.1316,0.0868,-0.4511,0.0072,0.0025,0.0121,642,46042,-0.1563,-0.002,-0.4977,0,0,0,-0.5359,1.0601,0.0137,-0.6585
9.1,0,0,0,0,0,0,-0.1324,0.0865,-0.4534,0.0073,0.0017,0.0126,643,46042,-0.1749,-0.0022,-0.4983,0,0,0,-0.5387,1.06,0.0135,-0.6585
9.121,0,0,0,0,0,0,-0.133,0.0863,-0.4555,0.0073,0.0011,0.0129,644,46042,-0.1561,-0.002,-0.5038,0,0,0,-0.5412,1.0601,0.0136,-0.6585
9.141,0,0,0,0,0,0,-0.1339,0.0861,-0.4576,0.0072,0.0008,0.0135,645,46042,-0.1766,-0.0023,-0.5042,0,0,0,-0.544,1.0601,0.0136,-0.6584
9.161,0,0,0,0,0,0,-0.1347,0.0858,-0.4597,0.0072,0.0008,0.0132,646,46042,-0.156,-0.002,-0.5098,0,0,0,-0.5466,1.0601,0.0136,-0.6585
9.181,0,0,0,0,0,0,-0.1356,0.0856,-0.4619,0.0069,0.0004,0.013,647,46042,-0.1784,-0.0023,-0.5101,0,0,0,-0.5493,1.0601,0.0136,-0.6585
9.2,0,0,0,0,0,0,-0.1362,0.0855,-0.4641,0.0065,0.0001,0.014,648,46042,-0.1557,-0.002,-0.5159,0,0,0,-0.5519,1.0601,0.0136,-0.6585
9.221,0,0,0,0,0,0,-0.1369,0.0854,-0.4662,0.0067,-0.0001,0.0147,649,46042,-0.1804,-0.0023,-0.5161,0,0,0,-0.5544,1.06,0.0136,-0.6584
9.241,0,0,0,0,0,0,-0.1377,0.0853,-0.4684,0.0063,-0.0006,0.0141,650,46042,-0.1552,-0.002,-0.522,0,0,0,-0.5572,1.0601,0.0136,-0.6585
9.261,0,0,0,0,0,0,-0.1385,0.0851,-0.4707,0.006,-0.0012,0.0146,651,46042,-0.1825,-0.0023,-0.522,0,0,0,-0.5598,1.0601,0.0135,-0.6585
9.281,0,0,0,0,0,0,-0.1391,0.0851,-0.4728,0.0061,-0.0017,0.0152,652,46042,-0.1552,-0.002,-0.5281,0,0,0,-0.5625,1.0601,0.0136,-0.6584
9.3,0,0,0,0,0,0,-0.1399,0.0849,-0.4751,0.0058,-0.0026,0.0151,653,46042,-0.1841,-0.0024,-0.528,0,0,0,-0.5651,1.0601,0.0136,-0.6586
9.321,0,0,0,0,0,0,-0.1405,0.0849,-0.4773,0.0056,-0.0031,0.0149,654,46042,-0.1565,-0.002,-0.534,0,0,0,-0.5676,1.0601,0.0136,-0.6586
9.341,0,0,0,0,0,0,-0.1412,0.0847,-0.4795,0.0054,-0.0032,0.0146,655,46042,-0.1836,-0.0024,-0.5342,0,0,0,-0.5704,1.0601,0.0135,-0.6585
9.361,0,0,0,0,0,0,-0.1418,0.0848,-0.4816,0.0053,-0.0035,0.0137,656,46042,-0.1561,-0.002,-0.5401,0,0,0,-0.573,1.0601,0.0136,-0.6585
9.381,0,0,0,0,0,0,-0.1426,0.0847,-0.4838,0.0054,-0.0039,0.0138,657,46042,-0.1856,-0.0024,-0.5402,0,0,0,-0.5757,1.0601,0.0136,-0.6585
9.4,0,0,0,0,0,0,-0.1432,0.0847,-0.486,0.005,-0.0041,0.0142,658,46042,-0.1578,-0.002,-0.5459,0,0,0,-0.5783,1.06,0.0135,-0.6585
9.421,0,0,0,0,0,0,-0.1437,0.0848,-0.4881,0.0051,-0.0042,0.0138,659,46042,-0.1847,-0.0024,-0.5465,0,0,0,-0.5808,1.06,0.0136,-0.6584
9.441,0,0,0,0,0,0,-0.1444,0.0849,-0.4904,0.0049,-0.0042,0.014,660,46042,-0.1571,-0.002,-0.5521,0,0,0,-0.5836,1.0601,0.0137,-0.6585
9.461,0,0,0,0,0,0,-0.1449,0.0849,-0.4927,0.0051,-0.0047,0.0143,661,46042,-0.1868,-0.0024,-0.5525,0,0,0,-0.5862,1.0601,0.0136,-0.6585
9.481,0,0,0,0,0,0,-0.1454,0.0849,-0.4949,0.0048,-0.0053,0.0144,662,46042,-0.1588,-0.002,-0.558,0,0,0,-0.5889,1.0601,0.0135,-0.6584
9.5,0,0,0,0,0,0,-0.1459,0.085,-0.4972,0.0048,-0.0058,0.0145,663,46042,-0.1857,-0.0024,-0.5588,0,0,0,-0.5915,1.06,0.0136,-0.6584
9.521,0,0,0,0,0,0,-0.1463,0.0852,-0.4996,0.0048,-0.0062,0.0139,664,46042,-0.1581,-0.002,-0.5641,0,0,0,-0.594,1.06,0.0136,-0.6584
9.541,0,0,0,0,0,0,-0.1468,0.0852,-0.5021,0.0049,-0.0067,0.0132,665,46042,-0.1876,-0.0024,-0.5649,0,0,0,-0.5968,1.0601,0.0135,-0.6585
9.561,0,0,0,0,0,0,-0.1473,0.0853,-0.5044,0.0046,-0.0066,0.0133,666,46042,-0.1594,-0.002,-0.57,0,0,0,-0.5994,1.0601,0.0136,-0.6584
9.581,0,0,0,0,0,0,-0.1477,0.0856,-0.5069,0.0048,-0.0068,0.013,667,46042,-0.1869,-0.0024,-0.5711,0,0,0,-0.6021,1.06,0.0136,-0.6585
9.6,0,0,0,0,0,0,-0.1481,0.0858,-0.5094,0.0045,-0.0064,0.0134,668,46042,-0.1589,-0.002,-0.5761,0,0,0,-0.6047,1.06,0.0137,-0.6584
9.621,0,0,0,0,0,0,-0.1484,0.0857,-0.5119,0.0042,-0.0062,0.0131,669,46042,-0.1886,-0.0024,-0.5772,0,0,0,-0.6072,1.0601,0.0136,-0.6585
9.641,0,0,0,0,0,0,-0.1486,0.0859,-0.5144,0.0045,-0.0063,0.0128,670,46042,-0.1603,-0.0021,-0.5821,0,0,0,-0.61,1.0601,0.0136,-0.6585
9.661,0,0,0,0,0,0,-0.1489,0.0862,-0.5168,0.0044,-0.0063,0.0121,671,46042,-0.1876,-0.0024,-0.5835,0,0,0,-0.6126,1.06,0.0136,-0.6584
9.681,0,0,0,0,0,0,-0.1491,0.0862,-0.5195,0.0039,-0.0066,0.011,672,46042,-0.1595,-0.002,-0.5882,0,0,0,-0.6153,1.0601,0.0136,-0.6585
9.7,0,0,0,0,0,0,-0.1493,0.0863,-0.5219,0.004,-0.0073,0.0098,673,46042,-0.1896,-0.0024,-0.5896,0,0,0,-0.6179,1.06,0.0136,-0.6584
9.721,0,0,0,0,0,0,-0.1495,0.0865,-0.5245,0.0041,-0.0078,0.0094,674,46042,-0.1611,-0.0021,-0.5942,0,0,0,-0.6204,1.0601,0.0136,-0.6585
9.741,0,0,0,0,0,0,-0.1496,0.0866,-0.5271,0.0036,-0.0075,0.0089,675,46042,-0.1877,-0.0024,-0.5959,0,0,0,-0.6232,1.0601,0.0137,-0.6586
9.76,0,0,0,0,0,0,-0.1497,0.0867,-0.5296,0.0033,-0.0074,0.0089,676,46042,-0.1604,-0.0021,-0.6003,0,0,0,-0.6258,1.0601,0.0136,-0.6585
9.781,0,0,0,0,0,0,-0.1497,0.0867,-0.5323,0.0037,-0.0072,0.0092,677,46042,-0.1897,-0.0024,-0.602,0,0,0,-0.6283,1.06,0.0135,-0.6585
9.8,0,0,0,0,0,0,-0.1498,0.087,-0.5349,0.0035,-0.0068,0.0095,678,46042,-0.1613,-0.0021,-0.6063,0,0,0,-0.6311,1.0601,0.0136,-0.6584
9.821,0,0,0,0,0,0,-0.1498,0.087,-0.5375,0.0031,-0.0066,0.0087,679,46042,-0.1889,-0.0024,-0.6082,0,0,0,-0.6336,1.0601,0.0136,-0.6585
9.841,0,0,0,0,0,0,-0.1498,0.0871,-0.5402,0.0031,-0.0057,0.0083,680,46042,-0.1606,-0.0021,-0.6124,0,0,0,-0.6364,1.0601,0.0136,-0.6586
9.861,0,0,0,0,0,0,-0.1498,0.0871,-0.5428,0.0031,-0.0052,0.0082,681,46042,-0.1905,-0.0024,-0.6144,0,0,0,-0.639,1.0601,0.0136,-0.6584
9.881,0,0,0,0,0,0,-0.1498,0.0873,-0.5455,0.0025,-0.0053,0.0089,682,46042,-0.1619,-0.0021,-0.6185,0,0,0,-0.6417,1.0601,0.0136,-0.6585
9.9,0,0,0,0,0,0,-0.1496,0.0873,-0.5481,0.0025,-0.005,0.0094,683,46042,-0.1892,-0.0024,-0.6207,0,0,0,-0.6443,1.0601,0.0136,-0.6585
9.921,0,0,0,0,0,0,-0.1495,0.0873,-0.5507,0.0024,-0.0047,0.0105,684,46042,-0.1609,-0.0021,-0.6246,0,0,0,-0.6468,1.0601,0.0135,-0.6585
9.941,0,0,0,0,0,0,-0.1495,0.0873,-0.5533,0.0022,-0.0049,0.0109,685,46042,-0.1912,-0.0025,-0.6268,0,0,0,-0.6496,1.06,0.0136,-0.6584
9.961,0,0,0,0,0,0,-0.1493,0.0875,-0.5558,0.0021,-0.0043,0.0109,686,46042,-0.1625,-0.0021,-0.6306,0,0,0,-0.6522,1.0601,0.0136,-0.6584
9.981,0,0,0,0,0,0,-0.1492,0.0873,-0.5584,0.002,-0.0039,0.0115,687,46042,-0.1892,-0.0024,-0.6331,0,0,0,-0.6549,1.0601,0.0135,-0.6585
10,0,0,0,0,0,0,-0.149,0.0874,-0.5608,0.0019,-0.0042,0.011,688,46042,-0.1614,-0.0021,-0.6367,0,0,0,-0.6575,1.0601,0.0136,-0.6585
10.021,0,0,0,0,0,0,-0.1487,0.0874,-0.5633,0.0016,-0.0036,0.0117,689,46042,-0.1909,-0.0024,-0.6393,0,0,0,-0.66,1.0601,0.0136,-0.6585
10.041,0,0,0,0,0,0,-0.1486,0.0874,-0.5657,0.0015,-0.0036,0.012,690,46042,-0.1617,-0.0021,-0.6424,0,0.0042,0,-0.66,1.06,0.0136,-0.6585
10.061,0,0,0,0,0,0,-0.1484,0.0874,-0.5683,0.0015,-0.0034,0.0113,691,46042,-0.1895,-0.0025,-0.6443,0,0.0082,0,-0.66,1.0601,0.0135,-0.6585
10.081,0,0,0,0,0,0,-0.1481,0.0874,-0.5707,0.0013,-0.0027,0.0116,692,46042,-0.1596,-0.0021,-0.6467,0,0.0122,0,-0.66,1.0601,0.0135,-0.6585
10.1,0,0,0,0,0,0,-0.1479,0.0874,-0.5731,0.0012,-0.0024,0.0116,693,46042,-0.1912,-0.0025,-0.6481,0,0.0162,0,-0.66,1.0601,0.0136,-0.6585
10.121,0,0,0,0,0,0,-0.1475,0.0874,-0.5754,0.0008,-0.0018,0.0118,694,46042,-0.1595,-0.0021,-0.6499,0,0.02,0,-0.66,1.0601,0.0136,-0.6585
10.141,0,0,0,0,0,0,-0.1472,0.0874,-0.5777,0.0012,-0.0011,0.0122,695,46042,-0.1904,-0.0026,-0.651,0,0.0242,0,-0.66,1.0601,0.0135,-0.6585
10.161,0,0,0,0,0,0,-0.1469,0.0873,-0.58,0.0008,-0.0007,0.0118,696,46042,-0.1576,-0.0022,-0.6523,0,0.0282,0,-0.66,1.0601,0.0136,-0.6585
10.181,0,0,0,0,0,0,-0.1466,0.0874,-0.5821,0.0007,0.0004,0.0116,697,46042,-0.1919,-0.0027,-0.6532,0,0.0322,0,-0.66,1.0601,0.0136,-0.6584
10.2,0,0,0,0,0,0,-0.1463,0.0874,-0.5845,0.0009,0.0014,0.0108,698,46042,-0.1577,-0.0023,-0.6542,0,0.0362,0,-0.66,1.0601,0.0136,-0.6585
10.221,0,0,0,0,0,0,-0.146,0.0873,-0.5868,0.0004,0.0018,0.0104,699,46042,-0.1907,-0.0027,-0.6549,0,0.04,0,-0.66,1.0601,0.0136,-0.6585
10.241,0,0,0,0,0,0,-0.1457,0.0873,-0.5889,0.0003,0.0021,0.0103,700,46042,-0.1554,-0.0023,-0.6556,0,0.0442,0,-0.66,1.0601,0.0136,-0.6585
10.261,0,0,0,0,0,0,-0.1454,0.0873,-0.5912,0.0006,0.0023,0.0107,701,46042,-0.193,-0.0029,-0.6561,0,0.0482,0,-0.66,1.0601,0.0136,-0.6585
10.281,0,0,0,0,0,0,-0.145,0.0873,-0.5934,0.0003,0.0029,0.0108,702,46042,-0.1562,-0.0024,-0.6567,0,0.0522,0,-0.66,1.0601,0.0136,-0.6585
10.3,0,0,0,0,0,0,-0.1446,0.0872,-0.5957,0.0003,0.003,0.0105,703,46042,-0.1905,-0.0029,-0.6571,0,0.0562,0,-0.66,1.0601,0.0135,-0.6584
10.321,0,0,0,0,0,0,-0.1444,0.0873,-0.5979,0.0005,0.0036,0.0109,704,46042,-0.1529,-0.0025,-0.6575,0,0.06,0,-0.66,1.0601,0.0136,-0.6584
10.341,0,0,0,0,0,0,-0.1441,0.0872,-0.6001,0.0003,0.0037,0.0104,705,46042,-0.1946,-0.0031,-0.6578,0,0.0642,0,-0.66,1.0601,0.0136,-0.6585
10.361,0,0,0,0,0,0,-0.1439,0.0871,-0.6024,0.0002,0.0042,0.0101,706,46042,-0.1552,-0.0026,-0.6582,0,0.0682,0,-0.66,1.06,0.0135,-0.6584
10.381,0,0,0,0,0,0,-0.1436,0.087,-0.6045,0.0005,0.0049,0.0096,707,46042,-0.1898,-0.0032,-0.6584,0,0.0722,0,-0.66,1.0601,0.0136,-0.6584
10.4,0,0,0,0,0,0,-0.1433,0.087,-0.6067,0.0007,0.0053,0.01,708,46042,-0.1499,-0.0027,-0.6587,0,0.0762,0,-0.66,1.0602,0.0136,-0.6585
10.421,0,0,0,0,0,0,-0.1431,0.0869,-0.6089,0.0005,0.0055,0.0101,709,46042,-0.1975,-0.0034,-0.6589,0,0.08,0,-0.66,1.06,0.0136,-0.6585
10.441,0,0,0,0,0,0,-0.1427,0.0868,-0.611,0.0005,0.0054,0.0104,710,46042,-0.1552,-0.0029,-0.659,0,0.0842,0,-0.66,1.0601,0.0135,-0.6585
10.461,0,0,0,0,0,0,-0.1425,0.0867,-0.6131,0.0007,0.0058,0.0099,711,46042,-0.1873,-0.0034,-0.6592,0,0.0882,0,-0.66,1.0601,0.0135,-0.6584
10.481,0,0,0,0,0,0,-0.1423,0.0867,-0.615,0.0005,0.0063,0.0097,712,46042,-0.1495,-0.0029,-0.6593,0,0.0922,0,-0.66,1.06,0.0136,-0.6584
10.5,0,0,0,0,0,0,-0.1421,0.0865,-0.617,0.0005,0.0067,0.0092,713,46042,-0.1956,-0.0036,-0.6595,0,0.0962,0,-0.66,1.0601,0.0135,-0.6585
10.521,0,0,0,0,0,0,-0.1419,0.0865,-0.6189,0.0005,0.0073,0.0089,714,46042,-0.1513,-0.0031,-0.6596,0,0.1,0,-0.66,1.0601,0.0136,-0.6584
10.54,0,0,0,0,0,0,-0.1418,0.0863,-0.6207,0.0009,0.0076,0.0092,715,46042,-0.1915,-0.0037,-0.6597,0,0.1042,0,-0.66,1.06,0.0136,-0.6584
10.561,0,0,0,0,0,0,-0.1416,0.0862,-0.6226,0.0008,0.0077,0.0097,716,46042,-0.1466,-0.0031,-0.6598,0,0.108,0,-0.66,1.06,0.0136,-0.6585
10.581,0,0,0,0,0,0,-0.1414,0.086,-0.6244,0.0009,0.0077,0.0098,717,46042,-0.1986,-0.0039,-0.6599,0,0.1122,0,-0.66,1.0601,0.0135,-0.6584
10.6,0,0,0,0,0,0,-0.1412,0.0859,-0.6261,0.0011,0.0077,0.0098,718,46042,-0.1514,-0.0033,-0.6599,0,0.1162,0,-0.66,1.0601,0.0135,-0.6584
10.621,0,0,0,0,0,0,-0.1412,0.0858,-0.6279,0.0009,0.0083,0.0101,719,46042,-0.1888,-0.0039,-0.66,0,0.12,0,-0.66,1.0601,0.0136,-0.6584
10.64,0,0,0,0,0,0,-0.1412,0.0857,-0.6296,0.001,0.0089,0.0111,720,46042,-0.1434,-0.0034,-0.66,0,0.1242,0,-0.66,1.0601,0.0136,-0.6585
10.66,0,0,0,0,0,0,-0.1411,0.0854,-0.6313,0.0009,0.0089,0.0117,721,46042,-0.2022,-0.0043,-0.6601,0,0.128,0,-0.66,1.06,0.0135,-0.6585
10.68,0,0,0,0,0,0,-0.141,0.0854,-0.6329,0.0008,0.0089,0.0127,722,46042,-0.1521,-0.0036,-0.6601,0,0.132,0,-0.66,1.0601,0.0136,-0.6584
10.7,0,0,0,0,0,0,-0.141,0.0852,-0.6346,0.001,0.0088,0.0132,723,46042,-0.1852,-0.0042,-0.6602,0,0.136,0,-0.66,1.0601,0.0136,-0.6585
10.721,0,0,0,0,0,0,-0.141,0.0851,-0.6362,0.0008,0.0084,0.0131,724,46042,-0.144,-0.0036,-0.6602,0,0.14,0,-0.66,1.0601,0.0136,-0.6585
10.74,0,0,0,0,0,0,-0.141,0.0849,-0.6377,0.0009,0.0077,0.0131,725,46042,-0.1986,-0.0045,-0.6603,0,0.1442,0,-0.66,1.0601,0.0135,-0.6584
10.761,0,0,0,0,0,0,-0.141,0.0848,-0.6392,0.0009,0.0077,0.0134,726,46042,-0.1466,-0.0038,-0.6603,0,0.148,0,-0.66,1.0601,0.0135,-0.6584
10.781,0,0,0,0,0,0,-0.1411,0.0847,-0.6408,0.001,0.0082,0.0137,727,46042,-0.1924,-0.0046,-0.6604,0,0.1522,0,-0.66,1.0601,0.0136,-0.6585
10.8,0,0,0,0,0,0,-0.1412,0.0845,-0.6421,0.0009,0.0081,0.0141,728,46042,-0.1401,-0.0039,-0.6603,0,0.1562,0,-0.66,1.0601,0.0135,-0.6584
10.82,0,0,0,0,0,0,-0.1413,0.0843,-0.6435,0.001,0.008,0.0141,729,46042,-0.2039,-0.0049,-0.6604,0,0.16,0,-0.66,1.0601,0.0135,-0.6584
10.84,0,0,0,0,0,0,-0.1414,0.0844,-0.6447,0.0009,0.0083,0.0139,730,46042,-0.1487,-0.0041,-0.6604,0,0.164,0,-0.66,1.0601,0.0136,-0.6584
10.86,0,0,0,0,0,0,-0.1416,0.0841,-0.6463,0.0007,0.0082,0.0148,731,46042,-0.1863,-0.0048,-0.6604,0,0.168,0,-0.66,1.06,0.0135,-0.6585
10.881,0,0,0,0,0,0,-0.1417,0.084,-0.6475,0.0008,0.0083,0.0141,732,46042,-0.1382,-0.0041,-0.6604,0,0.172,0,-0.66,1.0601,0.0136,-0.6584
10.9,0,0,0,0,0,0,-0.1419,0.0839,-0.6488,0.001,0.0082,0.0139,733,46042,-0.2054,-0.0052,-0.6605,0,0.1762,0,-0.66,1.0601,0.0136,-0.6584
10.921,0,0,0,0,0,0,-0.1421,0.0838,-0.6501,0.0011,0.008,0.014,734,46042,-0.1476,-0.0044,-0.6604,0,0.18,0,-0.66,1.0601,0.0136,-0.6585
10.941,0,0,0,0,0,0,-0.1422,0.0837,-0.6515,0.001,0.0082,0.0138,735,46042,-0.1858,-0.0051,-0.6605,0,0.1842,0,-0.66,1.06,0.0135,-0.6585
10.961,0,0,0,0,0,0,-0.1425,0.0836,-0.6528,0.0013,0.0077,0.0135,736,46042,-0.1362,-0.0044,-0.6605,0,0.1882,0,-0.66,1.0601,0.0136,-0.6584
10.981,0,0,0,0,0,0,-0.1427,0.0836,-0.6542,0.0011,0.0071,0.0141,737,46042,-0.2075,-0.0056,-0.6606,0,0.1922,0,-0.66,1.0601,0.0136,-0.6584
11.001,0,0,0,0,0,0,-0.143,0.0836,-0.6555,0.0009,0.0071,0.014,738,46042,-0.147,-0.0047,-0.6605,0,0.1962,0,-0.66,1.0601,0.0136,-0.6584
11.021,0,0,0,0,0,0,-0.1433,0.0834,-0.6569,0.0014,0.008,0.0137,739,46042,-0.1845,-0.0054,-0.6606,0,0.2002,0,-0.66,1.0601,0.0135,-0.6585
11.042,0,0,0,0,0,0,-0.1437,0.0833,-0.6583,0.0014,0.0089,0.0133,740,46042,-0.1349,-0.0047,-0.6605,0,0.2042,0,-0.66,1.0601,0.0136,-0.6584
11.062,0,0,0,0,0,0,-0.1439,0.0832,-0.6597,0.0012,0.0083,0.0123,741,46042,-0.2079,-0.0059,-0.6606,0,0.2084,0,-0.66,1.0601,0.0136,-0.6584
11.082,0,0,0,0,0,0,-0.1443,0.0831,-0.6611,0.0015,0.0079,0.0119,742,46042,-0.1448,-0.005,-0.6605,0,0.2124,0,-0.66,1.0601,0.0135,-0.6584
11.102,0,0,0,0,0,0,-0.1446,0.0829,-0.6624,0.0019,0.0073,0.0114,743,46042,-0.1859,-0.0057,-0.6606,0,0.2164,0,-0.66,1.0601,0.0136,-0.6584
11.122,0,0,0,0,0,0,-0.1449,0.0829,-0.6637,0.0019,0.0065,0.0116,744,46042,-0.1313,-0.005,-0.6605,0,0.2204,0,-0.66,1.0601,0.0136,-0.6584
11.142,0,0,0,0,0,0,-0.1453,0.0829,-0.6651,0.0017,0.0057,0.012,745,46042,-0.2139,-0.0063,-0.6607,0,0.2244,0,-0.66,1.0601,0.0136,-0.6584
11.162,0,0,0,0,0,0,-0.1457,0.0828,-0.6664,0.0015,0.0057,0.0128,746,46042,-0.1475,-0.0054,-0.6606,0,0.2284,0,-0.66,1.0601,0.0135,-0.6585
11.182,0,0,0,0,0,0,-0.1461,0.0827,-0.6677,0.0017,0.0054,0.0128,747,46042,-0.1787,-0.006,-0.6607,0,0.2324,0,-0.66,1.06,0.0136,-0.6584
11.201,0,0,0,0,0,0,-0.1465,0.0827,-0.6689,0.0015,0.0051,0.0136,748,46042,-0.1353,-0.0054,-0.6606,0,0.2364,0,-0.66,1.0601,0.0136,-0.6584
11.222,0,0,0,0,0,0,-0.1468,0.0825,-0.6701,0.0016,0.0041,0.0142,749,46042,-0.2021,-0.0065,-0.6607,0,0.2402,0,-0.66,1.0601,0.0136,-0.6584
11.242,0,0,0,0,0,0,-0.1472,0.0825,-0.6712,0.0016,0.0036,0.014,750,46042,-0.1351,-0.0055,-0.6606,0,0.2444,0,-0.66,1.0601,0.0136,-0.6584
11.262,0,0,0,0,0,0,-0.1475,0.0824,-0.6725,0.0016,0.0035,0.0135,751,46042,-0.2012,-0.0067,-0.6608,0,0.2484,0,-0.66,1.0601,0.0136,-0.6585
11.282,0,0,0,0,0,0,-0.148,0.0825,-0.6736,0.0015,0.0039,0.0134,752,46042,-0.1331,-0.0057,-0.6606,0,0.2524,0,-0.66,1.0601,0.0136,-0.6584
11.302,0,0,0,0,0,0,-0.1483,0.0822,-0.6747,0.0017,0.0034,0.0129,753,46042,-0.2046,-0.0069,-0.6608,0,0.2564,0,-0.66,1.0601,0.0136,-0.6585
11.322,0,0,0,0,0,0,-0.1486,0.0822,-0.6758,0.0016,0.0031,0.013,754,46042,-0.1348,-0.0059,-0.6607,0,0.2604,0,-0.66,1.0601,0.0135,-0.6584
11.342,0,0,0,0,0,0,-0.149,0.0821,-0.6769,0.0015,0.0029,0.0131,755,46042,-0.1995,-0.007,-0.6608,0,0.2644,0,-0.66,1.0601,0.0136,-0.6584
11.362,0,0,0,0,0,0,-0.1494,0.0823,-0.6779,0.0016,0.0023,0.0134,756,46042,-0.1293,-0.006,-0.6607,0,0.2684,0,-0.66,1.0601,0.0137,-0.6585
11.382,0,0,0,0,0,0,-0.1496,0.0821,-0.6789,0.0015,0.0021,0.0137,757,46042,-0.2113,-0.0074,-0.6608,0,0.2724,0,-0.66,1.0601,0.0136,-0.6585
11.402,0,0,0,0,0,0,-0.15,0.082,-0.6799,0.0012,0.0022,0.0143,758,46042,-0.1382,-0.0063,-0.6607,0,0.2764,0,-0.66,1.0601,0.0136,-0.6585
11.422,0,0,0,0,0,0,-0.1503,0.082,-0.6808,0.0014,0.002,0.0141,759,46042,-0.1897,-0.0073,-0.6608,0,0.2804,0,-0.66,1.0601,0.0137,-0.6585
11.442,0,0,0,0,0,0,-0.1506,0.082,-0.6817,0.0013,0.0018,0.0143,760,46042,-0.1186,-0.0062,-0.6607,0,0.2844,0,-0.66,1.0601,0.0136,-0.6585
11.462,0,0,0,0,0,0,-0.151,0.0819,-0.6825,0.0011,0.0013,0.0136,761,46042,-0.2378,-0.0083,-0.6609,0,0.2884,0,-0.66,1.0601,0.0136,-0.6585
11.482,0,0,0,0,0,0,-0.1513,0.0819,-0.6833,0.0009,0.0009,0.0124,762,46042,-0.0878,-0.0059,-0.6607,0,0.2924,0,-0.66,1.0601,0.0136,-0.6585
11.502,0,0,0,0,0,0,-0.1516,0.0819,-0.6841,0.0011,0.0008,0.0122,763,46042,-0.3531,-0.0106,-0.6612,0,0.2964,0,-0.66,1.0601,0.0136,-0.6585
11.521,0,0,0,0,0,0,-0.1519,0.0818,-0.6849,0.0011,0.0006,0.0115,764,46042,-0.2031,-0.0081,-0.6609,0,0.3004,0,-0.66,1.0601,0.0136,-0.6585
11.542,0,0,0,0,0,0,-0.1521,0.0816,-0.6858,0.0009,-0.0005,0.0111,765,46042,-0.0531,-0.0057,-0.6606,0,0.3042,0,-0.66,1.0601,0.0136,-0.6586
11.562,0,0,0,0,0,0,-0.1524,0.0818,-0.6865,0.001,-0.0008,0.0108,766,46042,-0.0631,-0.0059,-0.6607,0,0.3084,0,-0.66,1.0601,0.0137,-0.6584
11.582,0,0,0,0,0,0,-0.1525,0.0815,-0.6874,0.0014,-0.0009,0.0106,767,46042,-0.4929,-0.0135,-0.6615,0,0.3124,0,-0.66,1.0601,0.0137,-0.6585
11.602,0,0,0,0,0,0,-0.1528,0.0815,-0.6882,0.0016,0.0003,0.0107,768,46042,-0.3429,-0.011,-0.6612,0,0.3164,0,-0.66,1.0601,0.0136,-0.6585
11.622,0,0,0,0,0,0,-0.1531,0.0815,-0.6887,0.0017,0.0035,0.0095,769,46042,-0.1929,-0.0085,-0.6609,0,0.3204,0,-0.66,1.0601,0.0136,-0.6585
11.641,0,0,0,0,0,0,-0.1534,0.0813,-0.6896,0.0018,0.0035,0.0098,770,46042,-0.0429,-0.006,-0.6607,0,0.3244,0,-0.66,1.0601,0.0136,-0.6585
11.662,0,0,0,0,0,0,-0.1532,0.0813,-0.6902,0.0023,-0.0017,0.0092,771,46042,-0.0529,-0.0062,-0.6607,0,0.3282,0,-0.66,1.0601,0.0137,-0.6585
11.682,0,0,0,0,0,0,-0.1533,0.081,-0.691,0.0023,-0.0066,0.01,772,46042,-0.0629,-0.0064,-0.6607,0,0.3324,0,-0.66,1.0601,0.0136,-0.6586
11.702,0,0,0,0,0,0,-0.1534,0.081,-0.6917,0.002,-0.0047,0.01,773,46042,-0.4909,-0.0141,-0.6616,0,0.3364,0,-0.66,1.0601,0.0136,-0.6585
11.722,0,0,0,0,0,0,-0.1539,0.081,-0.6923,0.0022,0.0018,0.0109,774,46042,-0.341,-0.0116,-0.6613,0,0.3404,0,-0.66,1.0601,0.0137,-0.6584
11.742,0,0,0,0,0,0,-0.1542,0.0807,-0.6932,0.0017,0.0053,0.0111,775,46042,-0.191,-0.009,-0.661,0,0.3444,0,-0.66,1.0601,0.0136,-0.6586
11.762,0,0,0,0,0,0,-0.1542,0.0804,-0.6939,0.0018,0.003,0.0108,776,46042,-0.041,-0.0065,-0.6607,0,0.3484,0,-0.66,1.0601,0.0136,-0.6585
11.782,0,0,0,0,0,0,-0.1539,0.0804,-0.6948,0.0023,-0.0042,0.0092,777,46042,-0.051,-0.0067,-0.6607,0,0.3524,0,-0.66,1.0601,0.0137,-0.6585
11.802,0,0,0,0,0,0,-0.1537,0.0801,-0.6958,0.0016,-0.0091,0.0088,778,46042,-0.061,-0.0069,-0.6608,0,0.3564,0,-0.66,1.0601,0.0136,-0.6585
11.822,0,0,0,0,0,0,-0.1539,0.08,-0.6965,0.0015,-0.0065,0.0087,779,46042,-0.5008,-0.0151,-0.6617,0,0.3604,0,-0.66,1.0601,0.0136,-0.6584
11.841,0,0,0,0,0,0,-0.1542,0.0798,-0.6974,0.0017,-0.0012,0.0082,780,46042,-0.3508,-0.0125,-0.6614,0,0.3644,0,-0.66,1.0601,0.0136,-0.6585
11.862,0,0,0,0,0,0,-0.1542,0.0797,-0.6984,0.0014,0.0004,0.0093,781,46042,-0.2009,-0.0099,-0.6611,0,0.3682,0,-0.66,1.0601,0.0136,-0.6584
11.882,0,0,0,0,0,0,-0.154,0.0793,-0.6992,0.0018,-0.0036,0.0094,782,46042,-0.0509,-0.0073,-0.6608,0,0.3724,0,-0.66,1.0601,0.0136,-0.6585
11.902,0,0,0,0,0,0,-0.1538,0.0791,-0.7003,0.002,-0.0104,0.0095,783,46042,-0.0609,-0.0075,-0.6608,0,0.3764,0,-0.66,1.06,0.0135,-0.6585
11.922,0,0,0,0,0,0,-0.1534,0.0788,-0.7011,0.002,-0.0135,0.0094,784,46042,-0.4983,-0.0158,-0.6618,0,0.3804,0,-0.66,1.0601,0.0136,-0.6584
11.942,0,0,0,0,0,0,-0.1535,0.0786,-0.7018,0.0017,-0.0084,0.0093,785,46042,-0.3483,-0.0131,-0.6615,0,0.3844,0,-0.66,1.0601,0.0136,-0.6584
11.962,0,0,0,0,0,0,-0.1538,0.0784,-0.7026,0.0017,0.0002,0.0087,786,46042,-0.1984,-0.0105,-0.6612,0,0.3884,0,-0.66,1.0601,0.0136,-0.6585
11.982,0,0,0,0,0,0,-0.1538,0.078,-0.7034,0.001,0.0047,0.0096,787,46042,-0.0484,-0.0078,-0.6609,0,0.3924,0,-0.66,1.0601,0.0136,-0.6584
12.002,0,0,0,0,0,0,-0.1535,0.0777,-0.7042,0.0018,0.003,0.0109,788,46042,-0.0584,-0.008,-0.6609,0,0.3964,0,-0.66,1.0601,0.0137,-0.6585
12.022,0,0,0,0,0,0,-0.1531,0.0774,-0.7051,0.0019,-0.0028,0.011,789,46042,-0.5134,-0.017,-0.6619,0,0.4004,0,-0.66,1.0601,0.0137,-0.6585
12.041,0,0,0,0,0,0,-0.1527,0.0771,-0.7059,0.0013,-0.0036,0.0109,790,46042,-0.3634,-0.0142,-0.6616,0,0.4044,0,-0.66,1.0601,0.0136,-0.6585
12.062,0,0,0,0,0,0,-0.1527,0.0768,-0.7065,0.0021,-0.0005,0.0106,791,46042,-0.2135,-0.0114,-0.6613,0,0.4082,0,-0.66,1.0601,0.0136,-0.6585
12.082,0,0,0,0,0,0,-0.1525,0.0766,-0.7074,0.0016,0.0009,0.0115,792,46042,-0.0635,-0.0087,-0.661,0,0.4124,0,-0.66,1.0601,0.0136,-0.6585
12.102,0,0,0,0,0,0,-0.1521,0.0762,-0.7079,0.0024,-0.0026,0.0123,793,46042,-0.4746,-0.017,-0.6619,0,0.4164,0,-0.66,1.0601,0.0137,-0.6585
12.122,0,0,0,0,0,0,-0.1516,0.0758,-0.7085,0.0027,-0.0066,0.0128,794,46042,-0.3246,-0.0141,-0.6616,0,0.4204,0,-0.66,1.0601,0.0136,-0.6585
12.142,0,0,0,0,0,0,-0.1513,0.0756,-0.709,0.0022,-0.0045,0.0132,795,46042,-0.1747,-0.0113,-0.6613,0,0.4244,0,-0.66,1.0601,0.0137,-0.6585
12.162,0,0,0,0,0,0,-0.1514,0.0754,-0.7094,0.0022,0.0021,0.0133,796,46042,-0.0509,-0.009,-0.661,0,0.4284,0,-0.66,1.0601,0.0136,-0.6585
12.182,0,0,0,0,0,0,-0.1512,0.0751,-0.71,0.0018,0.0067,0.0142,797,46042,-0.0609,-0.0092,-0.661,0,0.4324,0,-0.66,1.0601,0.0136,-0.6585
12.202,0,0,0,0,0,0,-0.151,0.0748,-0.7105,0.0017,0.0101,0.0141,798,46042,-0.4898,-0.0181,-0.662,0,0.4364,0,-0.66,1.0601,0.0136,-0.6585
12.222,0,0,0,0,0,0,-0.1511,0.0746,-0.711,0.0018,0.0177,0.0146,799,46042,-0.3398,-0.0152,-0.6617,0,0.4404,0,-0.66,1.0601,0.0136,-0.6585
12.242,0,0,0,0,0,0,-0.1511,0.0744,-0.7114,0.002,0.0231,0.0141,800,46042,-0.1898,-0.0123,-0.6614,0,0.4444,0,-0.66,1.0601,0.0137,-0.6585
12.261,0,0,0,0,0,0,-0.1508,0.074,-0.7121,0.0019,0.0217,0.0148,801,46042,-0.0399,-0.0094,-0.661,0,0.4484,0,-0.66,1.0601,0.0136,-0.6586
12.282,0,0,0,0,0,0,-0.1504,0.0737,-0.7127,0.0023,0.0143,0.0143,802,46042,-0.0499,-0.0096,-0.6611,0,0.4522,0,-0.66,1.0601,0.0136,-0.6585
12.302,0,0,0,0,0,0,-0.1499,0.0735,-0.7132,0.0022,0.0062,0.0136,803,46042,-0.4979,-0.0193,-0.6622,0,0.4564,0,-0.66,1.0601,0.0137,-0.6584
12.322,0,0,0,0,0,0,-0.1499,0.0733,-0.714,0.002,0.0053,0.0142,804,46042,-0.3479,-0.0163,-0.6618,0,0.4604,0,-0.66,1.0601,0.0137,-0.6586
12.342,0,0,0,0,0,0,-0.15,0.0731,-0.7144,0.0021,0.0087,0.0141,805,46042,-0.198,-0.0133,-0.6615,0,0.4644,0,-0.66,1.0601,0.0136,-0.6585
12.362,0,0,0,0,0,0,-0.1501,0.0729,-0.7151,0.0014,0.01,0.0152,806,46042,-0.048,-0.0103,-0.6612,0,0.4684,0,-0.66,1.0602,0.0135,-0.6585
12.382,0,0,0,0,0,0,-0.15,0.0727,-0.7156,0.002,0.006,0.0157,807,46042,-0.5141,-0.0206,-0.6623,0,0.4724,0,-0.66,1.06,0.0136,-0.6584
12.402,0,0,0,0,0,0,-0.1498,0.0724,-0.7163,0.0023,-0.0002,0.0154,808,46042,-0.3641,-0.0175,-0.662,0,0.4764,0,-0.66,1.0602,0.0136,-0.6585
12.422,0,0,0,0,0,0,-0.1498,0.0723,-0.717,0.0016,-0.001,0.0156,809,46042,-0.2141,-0.0144,-0.6616,0,0.4804,0,-0.66,1.0601,0.0135,-0.6586
12.442,0,0,0,0,0,0,-0.15,0.072,-0.7174,0.002,0.0033,0.0156,810,46042,-0.0642,-0.0113,-0.6613,0,0.4844,0,-0.66,1.0602,0.0137,-0.6585
12.462,0,0,0,0,0,0,-0.15,0.0719,-0.718,0.0018,0.0057,0.0162,811,46042,-0.3918,-0.0188,-0.6621,0,0.4884,0,-0.66,1.0601,0.0137,-0.6586
12.482,0,0,0,0,0,0,-0.1502,0.0718,-0.7186,0.0015,0.0086,0.0158,812,46042,-0.2418,-0.0156,-0.6617,0,0.4924,0,-0.66,1.0601,0.0136,-0.6586
12.502,0,0,0,0,0,0,-0.1507,0.0716,-0.7191,0.0015,0.0167,0.0156,813,46042,-0.0919,-0.0125,-0.6614,0,0.4964,0,-0.66,1.0601,0.0136,-0.6586
12.522,0,0,0,0,0,0,-0.1511,0.0717,-0.7196,0.0016,0.0235,0.0154,814,46042,-0.242,-0.0161,-0.6618,0,0.5004,0,-0.66,1.0601,0.0136,-0.6585
12.542,0,0,0,0,0,0,-0.1513,0.0714,-0.7203,0.0012,0.0244,0.0153,815,46042,-0.092,-0.0129,-0.6614,0,0.5044,0,-0.66,1.0601,0.0137,-0.6586
12.562,0,0,0,0,0,0,-0.1514,0.0713,-0.721,0.0011,0.0223,0.0149,816,46042,-0.2416,-0.0165,-0.6618,0,0.5084,0,-0.66,1.0601,0.0136,-0.6586
12.582,0,0,0,0,0,0,-0.1517,0.0712,-0.7216,0.0011,0.0211,0.014,817,46042,-0.0917,-0.0132,-0.6614,0,0.5124,0,-0.66,1.0601,0.0136,-0.6585
12.602,0,0,0,0,0,0,-0.152,0.0711,-0.7224,0.0014,0.0184,0.0148,818,46042,-0.2428,-0.017,-0.6619,0,0.5164,0,-0.66,1.0601,0.0137,-0.6585
12.622,0,0,0,0,0,0,-0.1523,0.0711,-0.7229,0.0014,0.0147,0.014,819,46042,-0.0928,-0.0137,-0.6615,0,0.5204,0,-0.66,1.0601,0.0136,-0.6586
12.642,0,0,0,0,0,0,-0.1527,0.0709,-0.7236,0.0016,0.0118,0.0137,820,46042,-0.238,-0.0173,-0.6619,0,0.5244,0,-0.66,1.0601,0.0136,-0.6585
12.662,0,0,0,0,0,0,-0.1532,0.0709,-0.7239,0.0018,0.0101,0.0133,821,46042,-0.088,-0.0139,-0.6615,0,0.5284,0,-0.66,1.0601,0.0136,-0.6585
12.682,0,0,0,0,0,0,-0.1537,0.0707,-0.7243,0.0019,0.009,0.0131,822,46042,-0.2587,-0.0183,-0.662,0,0.5324,0,-0.66,1.0601,0.0137,-0.6585
12.702,0,0,0,0,0,0,-0.1543,0.0708,-0.7247,0.0021,0.0083,0.0129,823,46042,-0.1088,-0.0148,-0.6616,0,0.5364,0,-0.66,1.0601,0.0136,-0.6586
12.722,0,0,0,0,0,0,-0.1549,0.0704,-0.7248,0.002,0.0079,0.0128,824,46042,-0.178,-0.0167,-0.6618,0,0.5404,0,-0.66,1.0601,0.0136,-0.6585
12.742,0,0,0,0,0,0,-0.1555,0.0707,-0.725,0.0025,0.0071,0.0127,825,46042,-0.0478,-0.0137,-0.6615,0,0.5444,0,-0.66,1.0601,0.0136,-0.6586
12.762,0,0,0,0,0,0,-0.156,0.0703,-0.7251,0.0026,0.0055,0.0122,826,46042,-0.5148,-0.0255,-0.6628,0,0.5484,0,-0.66,1.0601,0.0137,-0.6585
12.782,0,0,0,0,0,0,-0.1565,0.0704,-0.7251,0.0028,0.004,0.0119,827,46042,-0.3648,-0.0219,-0.6624,0,0.5524,0,-0.66,1.0601,0.0136,-0.6586
12.802,0,0,0,0,0,0,-0.157,0.0701,-0.725,0.0033,0.0031,0.0112,828,46042,-0.2149,-0.0184,-0.662,0,0.5564,0,-0.66,1.06,0.0136,-0.6585
12.822,0,0,0,0,0,0,-0.1576,0.0702,-0.725,0.0039,0.001,0.0115,829,46042,-0.0649,-0.0148,-0.6616,0,0.5604,0,-0.66,1.0602,0.0137,-0.6585
12.841,0,0,0,0,0,0,-0.158,0.07,-0.7249,0.0041,-0.003,0.0114,830,46042,-0.3861,-0.0232,-0.6625,0,0.5644,0,-0.66,1.0601,0.0136,-0.6587
12.862,0,0,0,0,0,0,-0.1583,0.0698,-0.7247,0.005,-0.0075,0.0111,831,46042,-0.2362,-0.0196,-0.6621,0,0.5682,0,-0.66,1.0601,0.0136,-0.6585
12.882,0,0,0,0,0,0,-0.159,0.0698,-0.7243,0.0049,-0.0053,0.0107,832,46042,-0.0862,-0.0159,-0.6617,0,0.5724,0,-0.66,1.0601,0.0136,-0.6586
12.901,0,0,0,0,0,0,-0.1598,0.0696,-0.724,0.0048,0.0005,0.0109,833,46042,-0.2673,-0.0209,-0.6622,0,0.5764,0,-0.66,1.06,0.0136,-0.6585
12.922,0,0,0,0,0,0,-0.1602,0.0695,-0.7237,0.0047,0.003,0.0118,834,46042,-0.1173,-0.0172,-0.6618,0,0.5802,0,-0.66,1.0601,0.0136,-0.6586
12.942,0,0,0,0,0,0,-0.1608,0.0693,-0.7235,0.0045,0.0044,0.013,835,46042,-0.1517,-0.0183,-0.662,0,0.5844,0,-0.66,1.0601,0.0136,-0.6586
12.962,0,0,0,0,0,0,-0.1614,0.0694,-0.7232,0.005,0.0071,0.0133,836,46042,-0.0782,-0.0166,-0.6618,0,0.5884,0,-0.66,1.0601,0.0137,-0.6585
12.981,0,0,0,0,0,0,-0.1618,0.069,-0.7231,0.0051,0.0068,0.0138,837,46042,-0.3074,-0.023,-0.6624,0,0.5924,0,-0.66,1.0601,0.0137,-0.6586
13.002,0,0,0,0,0,0,-0.1622,0.069,-0.7228,0.0052,0.0052,0.0134,838,46042,-0.1575,-0.0192,-0.662,0,0.5962,0,-0.66,1.0601,0.0136,-0.6586
13.022,0,0,0,0,0,0,-0.1626,0.0687,-0.7226,0.0054,0.0028,0.0134,839,46042,-0.0698,-0.0171,-0.6618,0,0.6004,0,-0.66,1.0601,0.0136,-0.6586
13.042,0,0,0,0,0,0,-0.1629,0.0688,-0.7223,0.0057,-0.0014,0.0128,840,46042,-0.3551,-0.0251,-0.6627,0,0.6044,0,-0.66,1.0601,0.0136,-0.6586
13.061,0,0,0,0,0,0,-0.1631,0.0685,-0.722,0.0058,-0.0064,0.0135,841,46042,-0.2052,-0.0212,-0.6622,0,0.6084,0,-0.66,1.0601,0.0137,-0.6586
13.082,0,0,0,0,0,0,-0.1633,0.0683,-0.7217,0.0061,-0.011,0.0139,842,46042,-0.0552,-0.0173,-0.6618,0,0.6122,0,-0.66,1.0601,0.0136,-0.6586
13.102,0,0,0,0,0,0,-0.1636,0.0682,-0.7214,0.0063,-0.0126,0.0143,843,46042,-0.4538,-0.0286,-0.663,0,0.6164,0,-0.66,1.0601,0.0136,-0.6585
13.122,0,0,0,0,0,0,-0.1638,0.0681,-0.7211,0.0065,-0.0132,0.0149,844,46042,-0.3038,-0.0246,-0.6626,0,0.6204,0,-0.66,1.0601,0.0137,-0.6586
13.141,0,0,0,0,0,0,-0.1642,0.068,-0.7207,0.0065,-0.0114,0.0151,845,46042,-0.1539,-0.0207,-0.6622,0,0.6244,0,-0.66,1.0601,0.0136,-0.6586
13.161,0,0,0,0,0,0,-0.1646,0.0678,-0.7204,0.0065,-0.0068,0.0151,846,46042,-0.0748,-0.0187,-0.662,0,0.6282,0,-0.66,1.0601,0.0136,-0.6586
13.182,0,0,0,0,0,0,-0.1648,0.0677,-0.7201,0.0068,-0.0054,0.0154,847,46042,-0.3249,-0.0261,-0.6628,0,0.6322,0,-0.66,1.0601,0.0137,-0.6586
13.202,0,0,0,0,0,0,-0.1649,0.0676,-0.7199,0.0063,-0.004,0.0155,848,46042,-0.175,-0.0221,-0.6623,0,0.6364,0,-0.66,1.0601,0.0136,-0.6586
13.221,0,0,0,0,0,0,-0.1653,0.0675,-0.7197,0.0067,0.0014,0.0146,849,46042,-0.0501,-0.0187,-0.662,0,0.6404,0,-0.66,1.0601,0.0136,-0.6586
13.242,0,0,0,0,0,0,-0.1657,0.0674,-0.7196,0.0066,0.0053,0.0142,850,46042,-0.4936,-0.0319,-0.6634,0,0.6442,0,-0.66,1.0601,0.0136,-0.6585
13.262,0,0,0,0,0,0,-0.1656,0.0674,-0.7195,0.0066,0.004,0.0155,851,46042,-0.3437,-0.0278,-0.6629,0,0.6484,0,-0.66,1.0601,0.0136,-0.6586
13.282,0,0,0,0,0,0,-0.1656,0.0673,-0.7195,0.0068,-0.0002,0.015,852,46042,-0.1937,-0.0236,-0.6625,0,0.6524,0,-0.66,1.0601,0.0136,-0.6586
13.301,0,0,0,0,0,0,-0.1656,0.067,-0.7196,0.007,-0.0018,0.0147,853,46042,-0.0438,-0.0194,-0.6621,0,0.6564,0,-0.66,1.0601,0.0136,-0.6586
13.322,0,0,0,0,0,0,-0.1656,0.067,-0.7196,0.007,-0.0043,0.0146,854,46042,-0.0538,-0.0197,-0.6621,0,0.6602,0,-0.66,1.0601,0.0136,-0.6585
13.341,0,0,0,0,0,0,-0.1655,0.067,-0.7195,0.0069,-0.0065,0.0142,855,46042,-0.4641,-0.0324,-0.6634,0,0.6644,0,-0.66,1.0601,0.0136,-0.6586
13.362,0,0,0,0,0,0,-0.1657,0.0669,-0.7196,0.007,-0.0015,0.0144,856,46042,-0.3141,-0.0281,-0.663,0,0.6682,0,-0.66,1.0602,0.0136,-0.6586
13.381,0,0,0,0,0,0,-0.1661,0.0669,-0.7194,0.0069,0.0047,0.0131,857,46042,-0.1642,-0.0238,-0.6625,0,0.6724,0,-0.66,1.0601,0.0136,-0.6586
13.402,0,0,0,0,0,0,-0.1661,0.0668,-0.7197,0.0065,0.0054,0.0131,858,46042,-0.0611,-0.021,-0.6622,0,0.6762,0,-0.66,1.0601,0.0136,-0.6586
13.422,0,0,0,0,0,0,-0.1659,0.0667,-0.7197,0.0071,0.0001,0.0125,859,46042,-0.4104,-0.0322,-0.6634,0,0.6804,0,-0.66,1.0601,0.0137,-0.6586
13.442,0,0,0,0,0,0,-0.1656,0.0666,-0.72,0.0066,-0.0073,0.0121,860,46042,-0.2605,-0.0278,-0.6629,0,0.6844,0,-0.66,1.0601,0.0136,-0.6585
13.462,0,0,0,0,0,0,-0.1656,0.0666,-0.7202,0.0062,-0.0077,0.0122,861,46042,-0.1105,-0.0234,-0.6625,0,0.6884,0,-0.66,1.0601,0.0136,-0.6586
13.482,0,0,0,0,0,0,-0.1657,0.0667,-0.7202,0.0064,-0.0054,0.0122,862,46042,-0.1711,-0.0257,-0.6627,0,0.6924,0,-0.66,1.0601,0.0137,-0.6584
13.502,0,0,0,0,0,0,-0.1656,0.0665,-0.7206,0.0066,-0.0051,0.0126,863,46042,-0.0536,-0.0223,-0.6624,0,0.6964,0,-0.66,1.0601,0.0135,-0.6585
13.522,0,0,0,0,0,0,-0.1655,0.0665,-0.7207,0.0063,-0.0045,0.0122,864,46042,-0.4647,-0.0359,-0.6638,0,0.7004,0,-0.66,1.0601,0.0136,-0.6585
13.541,0,0,0,0,0,0,-0.1655,0.0665,-0.7207,0.0065,-0.0005,0.0112,865,46042,-0.3148,-0.0313,-0.6633,0,0.7044,0,-0.66,1.0602,0.0136,-0.6585
13.562,0,0,0,0,0,0,-0.1655,0.0664,-0.7208,0.0065,0.0025,0.0101,866,46042,-0.1648,-0.0267,-0.6629,0,0.7082,0,-0.66,1.0601,0.0136,-0.6585
13.586,0,0,0,0,0,0,-0.1653,0.0664,-0.7208,0.0066,0.0021,0.0093,867,46042,-0.0602,-0.0237,-0.6625,0,0.7124,0,-0.66,1.0601,0.0137,-0.6585
13.606,0,0,0,0,0,0,-0.165,0.0662,-0.7209,0.0067,-0.0018,0.0095,868,46042,-0.4155,-0.0359,-0.6638,0,0.7172,0,-0.66,1.0601,0.0136,-0.6585
13.626,0,0,0,0,0,0,-0.1646,0.0661,-0.7207,0.0074,-0.0069,0.009,869,46042,-0.2656,-0.0312,-0.6633,0,0.7212,0,-0.66,1.0601,0.0136,-0.6585
13.646,0,0,0,0,0,0,-0.1643,0.0662,-0.7206,0.007,-0.0066,0.009,870,46042,-0.1156,-0.0264,-0.6628,0,0.7252,0,-0.66,1.0602,0.0136,-0.6585
13.666,0,0,0,0,0,0,-0.1643,0.066,-0.7205,0.0073,-0.0049,0.0083,871,46042,-0.1554,-0.0282,-0.663,0,0.7292,0,-0.66,1.0601,0.0136,-0.6586
13.686,0,0,0,0,0,0,-0.1638,0.0658,-0.7201,0.0079,-0.0058,0.0081,872,46042,-0.072,-0.0257,-0.6628,0,0.7332,0,-0.66,1.0601,0.0136,-0.6585
13.706,0,0,0,0,0,0,-0.1634,0.0657,-0.7199,0.0081,-0.0049,0.0074,873,46042,-0.3393,-0.0355,-0.6638,0,0.7372,0,-0.66,1.0601,0.0136,-0.6585
13.726,0,0,0,0,0,0,-0.1633,0.0656,-0.7196,0.0081,-0.0006,0.0062,874,46042,-0.1894,-0.0305,-0.6633,0,0.7412,0,-0.66,1.0601,0.0136,-0.6585
13.746,0,0,0,0,0,0,-0.163,0.0654,-0.7194,0.0079,0.0016,0.006,875,46042,-0.0395,-0.0256,-0.6628,0,0.7452,0,-0.66,1.0601,0.0136,-0.6585
13.766,0,0,0,0,0,0,-0.1626,0.0653,-0.7189,0.0085,-0.0001,0.0059,876,46042,-0.0495,-0.026,-0.6628,0,0.7492,0,-0.66,1.0601,0.0136,-0.6585
13.786,0,0,0,0,0,0,-0.1621,0.0651,-0.7188,0.0082,-0.0035,0.0065,877,46042,-0.4963,-0.0425,-0.6646,0,0.7532,0,-0.66,1.0601,0.0137,-0.6585
13.807,0,0,0,0,0,0,-0.1617,0.065,-0.7185,0.0079,-0.0042,0.0068,878,46042,-0.3463,-0.0374,-0.664,0,0.7572,0,-0.66,1.0601,0.0136,-0.6585
13.827,0,0,0,0,0,0,-0.1613,0.0647,-0.7182,0.0082,-0.0025,0.0066,879,46042,-0.1964,-0.0323,-0.6635,0,0.7614,0,-0.66,1.0601,0.0136,-0.6585
13.846,0,0,0,0,0,0,-0.1608,0.0645,-0.7181,0.008,-0.0028,0.0071,880,46042,-0.0465,-0.0273,-0.6629,0,0.7654,0,-0.66,1.0602,0.0136,-0.6585
13.867,0,0,0,0,0,0,-0.1601,0.0643,-0.7178,0.0085,-0.0073,0.0074,881,46042,-0.5207,-0.0454,-0.6649,0,0.7692,0,-0.66,1.0601,0.0137,-0.6585
13.887,0,0,0,0,0,0,-0.1595,0.0639,-0.7178,0.0083,-0.0105,0.0077,882,46042,-0.3708,-0.0401,-0.6644,0,0.7734,0,-0.66,1.0601,0.0136,-0.6585
13.907,0,0,0,0,0,0,-0.1591,0.0637,-0.7175,0.0082,-0.007,0.0068,883,46042,-0.2209,-0.0349,-0.6638,0,0.7774,0,-0.66,1.0601,0.0136,-0.6585
13.926,0,0,0,0,0,0,-0.1588,0.0634,-0.7174,0.0082,-0.0014,0.0065,884,46042,-0.0709,-0.0297,-0.6632,0,0.7814,0,-0.66,1.0602,0.0136,-0.6585
13.947,0,0,0,0,0,0,-0.1582,0.0628,-0.7175,0.008,0.0012,0.0073,885,46042,-0.3447,-0.0407,-0.6644,0,0.7852,0,-0.66,1.0601,0.0136,-0.6586
13.967,0,0,0,0,0,0,-0.1577,0.0626,-0.7173,0.0075,0.0056,0.0075,886,46042,-0.1948,-0.0353,-0.6638,0,0.7894,0,-0.66,1.0601,0.0136,-0.6585
13.987,0,0,0,0,0,0,-0.1577,0.0621,-0.7174,0.0079,0.0144,0.0068,887,46042,-0.0449,-0.0299,-0.6632,0,0.7934,0,-0.66,1.0601,0.0136,-0.6585
14.006,0,0,0,0,0,0,-0.1575,0.0619,-0.7175,0.0072,0.0213,0.0067,888,46042,-0.5337,-0.0498,-0.6655,0,0.7974,0,-0.66,1.0601,0.0136,-0.6584
14.026,0,0,0,0,0,0,-0.157,0.0612,-0.7176,0.007,0.0217,0.0068,889,46042,-0.3838,-0.0442,-0.6648,0,0.8012,0,-0.66,1.0601,0.0136,-0.6585
14.047,0,0,0,0,0,0,-0.1566,0.0608,-0.7179,0.0069,0.0209,0.0072,890,46042,-0.2339,-0.0386,-0.6642,0,0.8052,0,-0.66,1.0601,0.0136,-0.6585
14.067,0,0,0,0,0,0,-0.1563,0.0604,-0.718,0.0072,0.0198,0.0063,891,46042,-0.084,-0.0331,-0.6636,0,0.8094,0,-0.66,1.0601,0.0136,-0.6584
14.086,0,0,0,0,0,0,-0.1558,0.0599,-0.7184,0.0075,0.0157,0.0075,892,46042,-0.2742,-0.0414,-0.6645,0,0.8134,0,-0.66,1.0601,0.0136,-0.6585
14.107,0,0,0,0,0,0,-0.1554,0.0594,-0.7183,0.0079,0.0119,0.0064,893,46042,-0.1243,-0.0357,-0.6639,0,0.8172,0,-0.66,1.0601,0.0136,-0.6584
14.127,0,0,0,0,0,0,-0.1554,0.059,-0.7186,0.0074,0.0151,0.0073,894,46042,-0.1307,-0.0366,-0.664,0,0.8214,0,-0.66,1.0601,0.0136,-0.6585
14.147,0,0,0,0,0,0,-0.1556,0.0585,-0.7185,0.0074,0.0208,0.007,895,46042,-0.1156,-0.0365,-0.664,0,0.8254,0,-0.66,1.0601,0.0136,-0.6584
14.166,0,0,0,0,0,0,-0.1557,0.058,-0.7186,0.0073,0.023,0.0088,896,46042,-0.1539,-0.0388,-0.6643,0,0.8294,0,-0.66,1.0601,0.0137,-0.6584
14.187,0,0,0,0,0,0,-0.1557,0.0575,-0.7186,0.0075,0.0238,0.0094,897,46042,-0.0733,-0.0359,-0.664,0,0.8332,0,-0.66,1.0601,0.0136,-0.6585
14.206,0,0,0,0,0,0,-0.1557,0.057,-0.7187,0.0075,0.0219,0.0098,898,46042,-0.3296,-0.0477,-0.6653,0,0.8374,0,-0.66,1.0601,0.0136,-0.6584
14.227,0,0,0,0,0,0,-0.1556,0.0564,-0.7187,0.0079,0.0172,0.0101,899,46042,-0.1797,-0.0416,-0.6646,0,0.8412,0,-0.66,1.0602,0.0136,-0.6585
14.246,0,0,0,0,0,0,-0.1556,0.0559,-0.7187,0.0078,0.0112,0.0106,900,46042,-0.045,-0.0362,-0.664,0,0.8454,0,-0.66,1.0601,0.0136,-0.6585
14.267,0,0,0,0,0,0,-0.1557,0.0553,-0.7187,0.0081,0.0061,0.0113,901,46042,-0.5303,-0.0587,-0.6665,0,0.8492,0,-0.66,1.0601,0.0136,-0.6585
14.287,0,0,0,0,0,0,-0.1557,0.0547,-0.7186,0.0083,0.002,0.0117,902,46042,-0.3805,-0.0524,-0.6658,0,0.8534,0,-0.66,1.0601,0.0136,-0.6585
14.307,0,0,0,0,0,0,-0.156,0.0543,-0.7185,0.0082,0.0021,0.012,903,46042,-0.2306,-0.046,-0.6651,0,0.8574,0,-0.66,1.0601,0.0137,-0.6585
14.326,0,0,0,0,0,0,-0.1564,0.0536,-0.7184,0.0085,0.0047,0.0118,904,46042,-0.0808,-0.0397,-0.6644,0,0.8614,0,-0.66,1.0601,0.0136,-0.6585
14.346,0,0,0,0,0,0,-0.1566,0.053,-0.7184,0.0082,0.004,0.0124,905,46042,-0.2883,-0.0501,-0.6656,0,0.8652,0,-0.66,1.0601,0.0136,-0.6585
14.366,0,0,0,0,0,0,-0.1568,0.0525,-0.7183,0.008,0.0053,0.012,906,46042,-0.1385,-0.0436,-0.6649,0,0.8692,0,-0.66,1.0601,0.0136,-0.6585
14.387,0,0,0,0,0,0,-0.1575,0.052,-0.7183,0.008,0.0127,0.0108,907,46042,-0.0983,-0.0424,-0.6647,0,0.8732,0,-0.66,1.0601,0.0136,-0.6585
14.406,0,0,0,0,0,0,-0.1582,0.0513,-0.7185,0.008,0.0186,0.0096,908,46042,-0.2102,-0.0485,-0.6654,0,0.8774,0,-0.66,1.0601,0.0136,-0.6585
14.427,0,0,0,0,0,0,-0.1584,0.0507,-0.7185,0.0079,0.0192,0.0096,909,46042,-0.0604,-0.0419,-0.6647,0,0.8812,0,-0.66,1.0601,0.0135,-0.6585
14.447,0,0,0,0,0,0,-0.1589,0.0503,-0.7187,0.0081,0.0178,0.0101,910,46042,-0.4082,-0.0599,-0.6667,0,0.8854,0,-0.66,1.0601,0.0136,-0.6585
14.467,0,0,0,0,0,0,-0.1592,0.0496,-0.7191,0.0082,0.0152,0.0099,911,46042,-0.2583,-0.053,-0.6659,0,0.8894,0,-0.66,1.0601,0.0136,-0.6585
14.487,0,0,0,0,0,0,-0.1595,0.0491,-0.7193,0.0084,0.0102,0.011,912,46042,-0.1085,-0.0461,-0.6651,0,0.8934,0,-0.66,1.0601,0.0136,-0.6585
14.507,0,0,0,0,0,0,-0.1598,0.0485,-0.7194,0.0085,0.006,0.0109,913,46042,-0.1737,-0.0502,-0.6656,0,0.8974,0,-0.66,1.0601,0.0135,-0.6585
14.527,0,0,0,0,0,0,-0.1602,0.0479,-0.7196,0.0091,0.0013,0.0115,914,46042,-0.0491,-0.0445,-0.6649,0,0.9014,0,-0.66,1.0601,0.0136,-0.6585
14.546,0,0,0,0,0,0,-0.1606,0.0473,-0.7196,0.0091,-0.0008,0.0114,915,46042,-0.4916,-0.0685,-0.6676,0,0.9054,0,-0.66,1.0601,0.0135,-0.6585
14.566,0,0,0,0,0,0,-0.1613,0.0468,-0.7197,0.0091,0.0015,0.011,916,46042,-0.3418,-0.0611,-0.6668,0,0.9092,0,-0.66,1.0601,0.0135,-0.6585
14.587,0,0,0,0,0,0,-0.1618,0.0463,-0.7196,0.0092,0.0031,0.0104,917,46042,-0.192,-0.0538,-0.666,0,0.9132,0,-0.66,1.0601,0.0136,-0.6584
14.607,0,0,0,0,0,0,-0.1622,0.0456,-0.7196,0.0097,0.0014,0.01,918,46042,-0.0421,-0.0466,-0.6652,0,0.9174,0,-0.66,1.0601,0.0136,-0.6585
14.627,0,0,0,0,0,0,-0.1626,0.0449,-0.7197,0.0099,-0.0029,0.0095,919,46042,-0.0521,-0.0471,-0.6652,0,0.9214,0,-0.66,1.0601,0.0135,-0.6585
14.646,0,0,0,0,0,0,-0.1629,0.0443,-0.7196,0.0098,-0.0067,0.0082,920,46042,-0.4662,-0.0707,-0.6679,0,0.9254,0,-0.66,1.0601,0.0136,-0.6585
14.667,0,0,0,0,0,0,-0.1635,0.0437,-0.7194,0.0097,-0.0039,0.007,921,46042,-0.3164,-0.0631,-0.667,0,0.9292,0,-0.66,1.06,0.0136,-0.6584
14.686,0,0,0,0,0,0,-0.1642,0.043,-0.7194,0.0092,-0.0001,0.0059,922,46042,-0.1666,-0.0555,-0.6662,0,0.9334,0,-0.66,1.0601,0.0136,-0.6584
14.707,0,0,0,0,0,0,-0.1645,0.0422,-0.7194,0.0093,-0.0015,0.0059,923,46042,-0.0556,-0.0502,-0.6656,0,0.9372,0,-0.66,1.0601,0.0135,-0.6585
14.726,0,0,0,0,0,0,-0.1646,0.0415,-0.7192,0.0097,-0.0074,0.006,924,46042,-0.4386,-0.0731,-0.6682,0,0.9414,0,-0.66,1.0601,0.0136,-0.6584
14.746,0,0,0,0,0,0,-0.1646,0.0409,-0.7192,0.0094,-0.0135,0.005,925,46042,-0.2888,-0.0652,-0.6673,0,0.9452,0,-0.66,1.0601,0.0136,-0.6584
14.767,0,0,0,0,0,0,-0.165,0.0402,-0.7191,0.0093,-0.0125,0.0052,926,46042,-0.139,-0.0573,-0.6664,0,0.9492,0,-0.66,1.06,0.0136,-0.6585
14.787,0,0,0,0,0,0,-0.1654,0.0396,-0.7188,0.0092,-0.0096,0.0049,927,46042,-0.0954,-0.0557,-0.6662,0,0.9534,0,-0.66,1.06,0.0136,-0.6584
14.806,0,0,0,0,0,0,-0.1655,0.0388,-0.7189,0.0094,-0.0102,0.0061,928,46042,-0.2178,-0.0641,-0.6672,0,0.9574,0,-0.66,1.0601,0.0136,-0.6585
14.826,0,0,0,0,0,0,-0.1655,0.0381,-0.7186,0.009,-0.0107,0.0061,929,46042,-0.068,-0.056,-0.6663,0,0.9612,0,-0.66,1.06,0.0136,-0.6584
14.846,0,0,0,0,0,0,-0.1658,0.0373,-0.7187,0.0089,-0.0069,0.0055,930,46042,-0.3531,-0.0746,-0.6683,0,0.9652,0,-0.66,1.0601,0.0135,-0.6585
14.866,0,0,0,0,0,0,-0.1661,0.0365,-0.7185,0.009,-0.0029,0.0049,931,46042,-0.2033,-0.0662,-0.6674,0,0.9692,0,-0.66,1.0601,0.0136,-0.6585
14.886,0,0,0,0,0,0,-0.166,0.0357,-0.7184,0.0091,-0.0034,0.0048,932,46042,-0.0535,-0.0578,-0.6665,0,0.9732,0,-0.66,1.0601,0.0136,-0.6584
14.906,0,0,0,0,0,0,-0.1659,0.0349,-0.7183,0.009,-0.0046,0.005,933,46042,-0.45,-0.0844,-0.6694,0,0.9772,0,-0.66,1.0601,0.0136,-0.6585
14.927,0,0,0,0,0,0,-0.1657,0.0339,-0.7181,0.0096,-0.0073,0.0048,934,46042,-0.3003,-0.0755,-0.6684,0,0.9812,0,-0.66,1.0601,0.0136,-0.6585
14.947,0,0,0,0,0,0,-0.1656,0.0332,-0.7178,0.0093,-0.0071,0.0057,935,46042,-0.1506,-0.0667,-0.6675,0,0.9854,0,-0.66,1.0601,0.0136,-0.6585
14.966,0,0,0,0,0,0,-0.1656,0.0323,-0.7177,0.0092,-0.0052,0.0053,936,46042,-0.0746,-0.0629,-0.667,0,0.9894,0,-0.66,1.06,0.0136,-0.6584
14.986,0,0,0,0,0,0,-0.1654,0.0313,-0.7174,0.0093,-0.0056,0.0056,937,46042,-0.3121,-0.0801,-0.669,0,0.9932,0,-0.66,1.0601,0.0135,-0.6585
15.007,0,0,0,0,0,0,-0.1653,0.0304,-0.7171,0.0092,-0.003,0.0051,938,46042,-0.1624,-0.071,-0.6679,0,0.9972,0,-0.66,1.06,0.0135,-0.6584
15.027,0,0,0,0,0,0,-0.1654,0.0295,-0.7168,0.0096,0.0036,0.0041,939,46042,-0.0583,-0.065,-0.6673,0,1.0014,0,-0.66,1.0601,0.0136,-0.6584
15.047,0,0,0,0,0,0,-0.1654,0.0286,-0.7165,0.009,0.0077,0.0041,940,46042,-0.4115,-0.0912,-0.6702,0,1.0054,0,-0.66,1.06,0.0136,-0.6584
15.067,0,0,0,0,0,0,-0.1651,0.0274,-0.7162,0.0097,0.0061,0.0049,941,46042,-0.2618,-0.0816,-0.6692,0,1.0094,0,-0.66,1.0601,0.0136,-0.6585
15.086,0,0,0,0,0,0,-0.1648,0.0265,-0.7159,0.0094,0.0044,0.0055,942,46042,-0.1121,-0.072,-0.6681,0,1.0134,0,-0.66,1.0601,0.0136,-0.6585
15.107,0,0,0,0,0,0,-0.1646,0.0256,-0.7156,0.0097,0.0026,0.0056,943,46042,-0.1561,-0.0766,-0.6686,0,1.0172,0,-0.66,1.06,0.0136,-0.6584
15.127,0,0,0,0,0,0,-0.1641,0.0244,-0.7153,0.0101,-0.001,0.0067,944,46042,-0.065,-0.0712,-0.668,0,1.0214,0,-0.66,1.0601,0.0136,-0.6585
15.147,0,0,0,0,0,0,-0.1638,0.0233,-0.7149,0.0102,-0.0022,0.0062,945,46042,-0.3631,-0.0952,-0.6707,0,1.0254,0,-0.66,1.0601,0.0135,-0.6585
15.166,0,0,0,0,0,0,-0.1638,0.0224,-0.7144,0.0109,0.0018,0.0058,946,46042,-0.2134,-0.0849,-0.6695,0,1.0294,0,-0.66,1.0601,0.0136,-0.6584
15.186,0,0,0,0,0,0,-0.1637,0.0212,-0.714,0.0106,0.0045,0.0063,947,46042,-0.0638,-0.0747,-0.6684,0,1.0332,0,-0.66,1.0601,0.0136,-0.6585
15.207,0,0,0,0,0,0,-0.1635,0.0202,-0.7134,0.011,0.0034,0.0062,948,46042,-0.3689,-0.1003,-0.6713,0,1.0372,0,-0.66,1.0601,0.0136,-0.6585
15.222,0,0,0,0,0,0,-0.163,0.019,-0.7131,0.0111,0.0002,0.0072,949,46042,-0.2193,-0.0897,-0.6701,0,1.0414,0,-0.66,1.0601,0.0136,-0.6585
15.249,0,0,0,0,0,0,-0.1627,0.0179,-0.7126,0.0114,-0.0026,0.0075,950,46042,-0.0697,-0.0791,-0.6689,0,1.0444,0,-0.66,1.0601,0.0136,-0.6584
15.269,0,0,0,0,0,0,-0.1624,0.0168,-0.7121,0.012,-0.0015,0.0081,951,63330,-0.3309,-0.1022,-0.6715,0,1.0498,0,-0.66,1.0601,0.0136,-0.6585
15.289,0,0,0,0,0,0,-0.1621,0.0156,-0.7116,0.0122,-0.0016,0.0091,952,63330,-0.1813,-0.0912,-0.6702,0,1.0538,0,-0.66,1.0601,0.0135,-0.6585
15.309,0,0,0,0,0,0,-0.1618,0.0146,-0.711,0.0127,-0.0003,0.0093,953,63330,-0.0385,-0.0807,-0.6691,0,1.0578,0,-0.66,1.0601,0.0135,-0.6584
15.329,0,0,0,0,0,0,-0.1617,0.0135,-0.7105,0.0128,0.0034,0.0099,954,63330,-0.0485,-0.0816,-0.6692,0,1.0618,0,-0.66,1.0601,0.0136,-0.6585
15.349,0,0,0,0,0,0,-0.1613,0.0123,-0.7099,0.0131,0.0042,0.0099,955,63330,-0.4722,-0.1199,-0.6735,0,1.0658,0,-0.66,1.0601,0.0136,-0.6585
15.369,0,0,0,0,0,0,-0.1611,0.0113,-0.7093,0.0129,0.0054,0.0108,956,63330,-0.3226,-0.1083,-0.6722,0,1.0698,0,-0.66,1.0601,0.0136,-0.6585
15.389,0,0,0,0,0,0,-0.161,0.0102,-0.7088,0.013,0.0082,0.0119,957,63330,-0.1731,-0.0967,-0.6709,0,1.0738,0,-0.66,1.0601,0.0136,-0.6584
15.409,0,0,0,0,0,0,-0.1605,0.0093,-0.7082,0.0131,0.0056,0.0128,958,63330,-0.0438,-0.0869,-0.6698,0,1.0778,0,-0.66,1.0601,0.0137,-0.6584
15.429,0,0,0,0,0,0,-0.1599,0.0081,-0.7077,0.0137,-0.0013,0.0146,959,63330,-0.506,-0.131,-0.6747,0,1.0818,0,-0.66,1.0601,0.0135,-0.6585
15.449,0,0,0,0,0,0,-0.1593,0.0071,-0.7073,0.0133,-0.0066,0.015,960,63330,-0.3565,-0.1187,-0.6733,0,1.0858,0,-0.66,1.0601,0.0135,-0.6585
15.469,0,0,0,0,0,0,-0.1591,0.0062,-0.7067,0.0134,-0.0056,0.0149,961,63330,-0.207,-0.1065,-0.6719,0,1.0898,0,-0.66,1.0602,0.0136,-0.6585
15.489,0,0,0,0,0,0,-0.1589,0.0051,-0.7063,0.0135,-0.0013,0.0153,962,63330,-0.0575,-0.0942,-0.6706,0,1.0938,0,-0.66,1.0601,0.0136,-0.6585
15.509,0,0,0,0,0,0,-0.1585,0.0039,-0.706,0.0134,-0.0004,0.0157,963,63330,-0.396,-0.1291,-0.6745,0,1.0978,0,-0.66,1.0601,0.0136,-0.6585
15.529,0,0,0,0,0,0,-0.1582,0.003,-0.7055,0.0133,0.002,0.0151,964,63330,-0.2465,-0.1162,-0.673,0,1.1018,0,-0.66,1.0601,0.0136,-0.6585
15.549,0,0,0,0,0,0,-0.1582,0.0022,-0.7051,0.013,0.0108,0.0133,965,63330,-0.0971,-0.1034,-0.6716,0,1.1058,0,-0.66,1.0601,0.0136,-0.6584
15.569,0,0,0,0,0,0,-0.1582,0.0012,-0.7049,0.0129,0.0189,0.0119,966,63330,-0.1926,-0.1154,-0.6729,0,1.1098,0,-0.66,1.0601,0.0136,-0.6585
15.589,0,0,0,0,0,0,-0.158,0.0001,-0.7049,0.0121,0.0207,0.0122,967,63330,-0.0432,-0.1022,-0.6715,0,1.1138,0,-0.66,1.06,0.0135,-0.6584
15.609,0,0,0,0,0,0,-0.1577,-0.0006,-0.7048,0.0117,0.021,0.0131,968,63330,-0.4952,-0.1521,-0.6771,0,1.1178,0,-0.66,1.0601,0.0136,-0.6584
15.629,0,0,0,0,0,0,-0.1577,-0.0015,-0.7049,0.0122,0.0221,0.0127,969,63330,-0.3459,-0.138,-0.6755,0,1.1218,0,-0.66,1.06,0.0136,-0.6583
15.649,0,0,0,0,0,0,-0.1575,-0.0025,-0.7053,0.0119,0.0211,0.0128,970,63330,-0.1965,-0.124,-0.6739,0,1.1258,0,-0.66,1.0601,0.0136,-0.6585
15.669,0,0,0,0,0,0,-0.1574,-0.0033,-0.7052,0.0116,0.0183,0.0124,971,63330,-0.0472,-0.1101,-0.6724,0,1.1298,0,-0.66,1.06,0.0136,-0.6584
15.689,0,0,0,0,0,0,-0.1572,-0.0042,-0.7055,0.0122,0.0139,0.013,972,63330,-0.4559,-0.1585,-0.6778,0,1.1338,0,-0.66,1.0601,0.0136,-0.6584
15.709,0,0,0,0,0,0,-0.157,-0.005,-0.7055,0.0125,0.0101,0.0113,973,63330,-0.3067,-0.1436,-0.6762,0,1.1378,0,-0.66,1.06,0.0136,-0.6584
15.729,0,0,0,0,0,0,-0.1573,-0.0058,-0.7056,0.0122,0.0136,0.0094,974,63330,-0.1574,-0.1288,-0.6745,0,1.1418,0,-0.66,1.0601,0.0135,-0.6584
15.749,0,0,0,0,0,0,-0.1578,-0.0066,-0.7056,0.0119,0.0185,0.0082,975,63330,-0.0526,-0.1193,-0.6734,0,1.1458,0,-0.66,1.0601,0.0135,-0.6585
15.769,0,0,0,0,0,0,-0.1579,-0.0075,-0.7055,0.0118,0.0187,0.0083,976,63330,-0.4078,-0.1647,-0.6785,0,1.1498,0,-0.66,1.0601,0.0136,-0.6585
15.789,0,0,0,0,0,0,-0.1582,-0.0083,-0.7056,0.0114,0.0199,0.009,977,63330,-0.2586,-0.149,-0.6768,0,1.1538,0,-0.66,1.0601,0.0136,-0.6586
15.809,0,0,0,0,0,0,-0.1588,-0.0091,-0.7057,0.0116,0.0235,0.0082,978,63330,-0.1095,-0.1333,-0.675,0,1.1578,0,-0.66,1.0601,0.0135,-0.6585
15.829,0,0,0,0,0,0,-0.1592,-0.0099,-0.7058,0.0113,0.025,0.0091,979,63330,-0.139,-0.1401,-0.6758,0,1.1618,0,-0.66,1.0601,0.0136,-0.6585
15.849,0,0,0,0,0,0,-0.1594,-0.0108,-0.7059,0.0116,0.0204,0.0095,980,63330,-0.0737,-0.1348,-0.6752,0,1.1658,0,-0.66,1.0602,0.0136,-0.6586
15.869,0,0,0,0,0,0,-0.1597,-0.0116,-0.7062,0.0114,0.0146,0.0093,981,63330,-0.2709,-0.164,-0.6785,0,1.1698,0,-0.66,1.06,0.0136,-0.6585
15.889,0,0,0,0,0,0,-0.1602,-0.0124,-0.7063,0.0113,0.0131,0.0077,982,63330,-0.1218,-0.147,-0.6766,0,1.1738,0,-0.66,1.0602,0.0135,-0.6586
15.909,0,0,0,0,0,0,-0.1608,-0.0133,-0.7063,0.0115,0.012,0.0072,983,63330,-0.1029,-0.1479,-0.6766,0,1.1778,0,-0.66,1.0601,0.0135,-0.6585
15.929,0,0,0,0,0,0,-0.1612,-0.014,-0.7064,0.0116,0.0086,0.0066,984,63330,-0.1501,-0.1579,-0.6778,0,1.1818,0,-0.66,1.0601,0.0136,-0.6584
15.949,0,0,0,0,0,0,-0.1616,-0.0151,-0.7065,0.0117,0.0037,0.0074,985,63330,-0.053,-0.1477,-0.6766,0,1.1858,0,-0.66,1.0601,0.0135,-0.6585
15.969,0,0,0,0,0,0,-0.1622,-0.0156,-0.7064,0.0117,0.0006,0.0075,986,63330,-0.3739,-0.1981,-0.6823,0,1.1898,0,-0.66,1.0601,0.0136,-0.6585
15.989,0,0,0,0,0,0,-0.1628,-0.0167,-0.7066,0.0119,-0.0006,0.0074,987,63330,-0.2251,-0.1793,-0.6802,0,1.1938,0,-0.66,1.0601,0.0136,-0.6584
16.009,0,0,0,0,0,0,-0.1633,-0.0174,-0.7067,0.0119,-0.0034,0.0066,988,63330,-0.0763,-0.1605,-0.6781,0,1.1978,0,-0.66,1.0601,0.0136,-0.6585
16.029,0,0,0,0,0,0,-0.1636,-0.0183,-0.7065,0.0122,-0.0063,0.0056,989,63330,-0.2374,-0.1893,-0.6813,0,1.2018,0,-0.66,1.0601,0.0135,-0.6584
16.049,0,0,0,0,0,0,-0.1641,-0.0193,-0.7066,0.0124,-0.0095,0.0049,990,63330,-0.0887,-0.1698,-0.6791,0,1.2058,0,-0.66,1.0601,0.0136,-0.6585
16.069,0,0,0,0,0,0,-0.1645,-0.0202,-0.7066,0.0121,-0.0099,0.0031,991,63330,-0.1816,-0.1889,-0.6813,0,1.2098,0,-0.66,1.0601,0.0136,-0.6584
16.089,0,0,0,0,0,0,-0.1652,-0.0213,-0.7064,0.0125,-0.0062,0.0011,992,63330,-0.033,-0.1688,-0.679,0,1.2138,0,-0.66,1.0601,0.0136,-0.6585
16.109,0,0,0,0,0,0,-0.1656,-0.0224,-0.7065,0.0123,-0.0043,0,993,63330,-0.492,-0.2501,-0.6882,0,1.2178,0,-0.66,1.06,0.0135,-0.6584
16.129,0,0,0,0,0,0,-0.1659,-0.0232,-0.7063,0.0124,-0.0042,-0.0014,994,63330,-0.3436,-0.2285,-0.6858,0,1.2218,0,-0.66,1.0602,0.0137,-0.6584
16.149,0,0,0,0,0,0,-0.1662,-0.0244,-0.7065,0.0131,-0.0056,-0.0024,995,63330,-0.1952,-0.2069,-0.6834,0,1.2258,0,-0.66,1.0601,0.0136,-0.6584
16.169,0,0,0,0,0,0,-0.1663,-0.0253,-0.7064,0.0129,-0.0082,-0.0034,996,63330,-0.0468,-0.1853,-0.6809,0,1.2298,0,-0.66,1.06,0.0135,-0.6584
16.189,0,0,0,0,0,0,-0.1663,-0.0265,-0.7065,0.0136,-0.013,-0.003,997,63330,-0.3663,-0.2479,-0.688,0,1.2338,0,-0.66,1.06,0.0136,-0.6584
16.209,0,0,0,0,0,0,-0.1662,-0.0277,-0.7064,0.0137,-0.0174,-0.0051,998,63330,-0.2181,-0.225,-0.6854,0,1.2378,0,-0.66,1.0601,0.0136,-0.6585
16.229,0,0,0,0,0,0,-0.1665,-0.029,-0.7064,0.0136,-0.0152,-0.0087,999,63330,-0.0699,-0.2022,-0.6828,0,1.2418,0,-0.66,1.0601,0.0136,-0.6584
16.249,0,0,0,0,0,0,-0.1668,-0.0304,-0.7063,0.0136,-0.009,-0.012,1000,63330,-0.2251,-0.2373,-0.6868,0,1.2458,0,-0.66,1.0601,0.0136,-0.6585
16.269,0,0,0,0,0,0,-0.1667,-0.0318,-0.7061,0.013,-0.0062,-0.0131,1001,64330,-0.077,-0.2135,-0.6841,0,1.2498,0,-0.66,1.0601,0.0136,-0.6584
16.289,0,0,0,0,0,0,-0.1668,-0.0332,-0.706,0.013,-0.0021,-0.0149,1002,64330,-0.1854,-0.241,-0.6872,0,1.2538,0,-0.66,1.0601,0.0136,-0.6585
16.309,0,0,0,0,0,0,-0.167,-0.0347,-0.7061,0.0129,0.0029,-0.0169,1003,64330,-0.0375,-0.2163,-0.6844,0,1.2578,0,-0.66,1.06,0.0135,-0.6584
16.329,0,0,0,0,0,0,-0.1668,-0.0365,-0.7062,0.0128,0.0031,-0.017,1004,64330,-0.3781,-0.2939,-0.6932,0,1.2618,0,-0.66,1.0601,0.0135,-0.6585
16.349,0,0,0,0,0,0,-0.1666,-0.0381,-0.706,0.013,0.0014,-0.0174,1005,64330,-0.2305,-0.2675,-0.6902,0,1.2658,0,-0.66,1.0601,0.0136,-0.6584
16.369,0,0,0,0,0,0,-0.1664,-0.0399,-0.7064,0.0132,-0.0019,-0.0182,1006,64330,-0.0828,-0.2412,-0.6872,0,1.2698,0,-0.66,1.0602,0.0137,-0.6586
16.389,0,0,0,0,0,0,-0.1661,-0.0418,-0.7064,0.0129,-0.0049,-0.0189,1007,64330,-0.1407,-0.2608,-0.6894,0,1.2738,0,-0.66,1.06,0.0135,-0.6585
16.409,0,0,0,0,0,0,-0.1657,-0.0438,-0.7065,0.0133,-0.0082,-0.0189,1008,64330,-0.0242,-0.2407,-0.6872,0,1.2778,0,-0.66,1.0601,0.0136,-0.6584
16.429,0,0,0,0,0,0,-0.1654,-0.0458,-0.7066,0.0128,-0.0087,-0.0204,1009,64330,-0.4246,-0.342,-0.6986,0,1.2818,0,-0.66,1.0601,0.0136,-0.6585
16.449,0,0,0,0,0,0,-0.1654,-0.048,-0.7066,0.0134,-0.0043,-0.022,1010,64330,-0.2776,-0.3126,-0.6953,0,1.2858,0,-0.66,1.06,0.0136,-0.6584
16.469,0,0,0,0,0,0,-0.1653,-0.0504,-0.7069,0.0132,-0.0011,-0.0225,1011,64330,-0.1305,-0.2833,-0.692,0,1.2898,0,-0.66,1.0601,0.0135,-0.6585
16.489,0,0,0,0,0,0,-0.1649,-0.0527,-0.7068,0.0137,-0.002,-0.0226,1012,64330,-0.0236,-0.2641,-0.6898,0,1.2938,0,-0.66,1.06,0.0135,-0.6584
16.509,0,0,0,0,0,0,-0.1645,-0.0551,-0.7068,0.0143,-0.006,-0.0218,1013,64330,-0.3807,-0.3639,-0.7011,0,1.2978,0,-0.66,1.0601,0.0136,-0.6583
16.529,0,0,0,0,0,0,-0.1638,-0.0578,-0.7069,0.0147,-0.0123,-0.0237,1014,64330,-0.2342,-0.3322,-0.6975,0,1.3018,0,-0.66,1.0601,0.0135,-0.6586
16.549,0,0,0,0,0,0,-0.1634,-0.0604,-0.7067,0.0147,-0.0119,-0.0257,1015,64330,-0.0876,-0.3006,-0.694,0,1.3058,0,-0.66,1.06,0.0136,-0.6584
16.569,0,0,0,0,0,0,-0.163,-0.0634,-0.7065,0.0148,-0.0094,-0.0273,1016,64330,-0.0754,-0.3058,-0.6946,0,1.3098,0,-0.66,1.0601,0.0136,-0.6585
16.589,0,0,0,0,0,0,-0.1624,-0.0662,-0.7064,0.0153,-0.0105,-0.0267,1017,64330,-0.0982,-0.3212,-0.6963,0,1.3138,0,-0.66,1.06,0.0136,-0.6584
16.609,0,0,0,0,0,0,-0.1617,-0.0692,-0.7061,0.0154,-0.0102,-0.027,1018,64330,-0.0403,-0.3136,-0.6954,0,1.3178,0,-0.66,1.0601,0.0136,-0.6585
16.629,0,0,0,0,0,0,-0.1613,-0.0724,-0.706,0.0155,-0.0063,-0.0287,1019,64330,-0.2015,-0.3713,-0.702,0,1.3218,0,-0.66,1.06,0.0135,-0.6584
16.649,0,0,0,0,0,0,-0.1608,-0.0756,-0.7056,0.0158,-0.0036,-0.0291,1020,64330,-0.0558,-0.3359,-0.698,0,1.3258,0,-0.66,1.0601,0.0136,-0.6584
16.669,0,0,0,0,0,0,-0.1599,-0.0789,-0.7054,0.0155,-0.0054,-0.0284,1021,64330,-0.116,-0.365,-0.7013,0,1.3298,0,-0.66,1.0601,0.0136,-0.6585
16.689,0,0,0,0,0,0,-0.1591,-0.0823,-0.7054,0.0157,-0.0081,-0.0272,1022,64330,0.0067,-0.3357,-0.698,0,1.3338,0,-0.66,1.0601,0.0136,-0.6585
16.709,0,0,0,0,0,0,-0.1582,-0.0861,-0.705,0.0166,-0.0116,-0.0259,1023,64330,-0.4128,-0.4864,-0.715,0,1.3378,0,-0.66,1.0601,0.0136,-0.6584
16.729,0,0,0,0,0,0,-0.1574,-0.0896,-0.7047,0.0166,-0.0122,-0.0255,1024,64330,-0.2683,-0.4463,-0.7105,0,1.3418,0,-0.66,1.06,0.0136,-0.6585
16.749,0,0,0,0,0,0,-0.1564,-0.0936,-0.7046,0.0166,-0.0127,-0.0257,1025,64330,-0.1238,-0.4064,-0.706,0,1.3458,0,-0.66,1.06,0.0136,-0.6584
16.769,0,0,0,0,0,0,-0.1553,-0.0974,-0.7041,0.0168,-0.014,-0.0253,1026,64330,0.0208,-0.3665,-0.7015,0,1.3498,0,-0.66,1.0601,0.0135,-0.6584
16.789,0,0,0,0,0,0,-0.1541,-0.1015,-0.7038,0.0173,-0.0167,-0.0239,1027,64330,-0.4204,-0.541,-0.7213,0,1.3538,0,-0.66,1.06,0.0136,-0.6583
16.809,0,0,0,0,0,0,-0.1529,-0.1057,-0.7035,0.0176,-0.0193,-0.0275,1028,64330,-0.277,-0.4973,-0.7163,0,1.3578,0,-0.66,1.0601,0.0136,-0.6585
16.829,0,0,0,0,0,0,-0.152,-0.1101,-0.7033,0.0174,-0.0145,-0.032,1029,64330,-0.1335,-0.4538,-0.7114,0,1.3618,0,-0.66,1.06,0.0135,-0.6584
16.849,0,0,0,0,0,0,-0.1509,-0.1146,-0.7029,0.0177,-0.0086,-0.0361,1030,64330,0.01,-0.4104,-0.7065,0,1.3658,0,-0.66,1.0601,0.0136,-0.6585
16.869,0,0,0,0,0,0,-0.1497,-0.1192,-0.7026,0.0176,-0.0077,-0.0351,1031,64330,-0.2294,-0.5216,-0.7191,0,1.3698,0,-0.66,1.0601,0.0136,-0.6584
16.889,0,0,0,0,0,0,-0.1482,-0.1238,-0.7023,0.0175,-0.0083,-0.0346,1032,64330,-0.0868,-0.4752,-0.7139,0,1.3738,0,-0.66,1.0601,0.0136,-0.6585
16.909,0,0,0,0,0,0,-0.147,-0.1285,-0.7023,0.0168,-0.0054,-0.0364,1033,64330,0.0526,-0.4303,-0.7088,0,1.3778,0,-0.66,1.06,0.0136,-0.6584
16.929,0,0,0,0,0,0,-0.1459,-0.1335,-0.702,0.0174,-0.0006,-0.0368,1034,64330,0.0436,-0.4346,-0.7093,0,1.3818,0,-0.66,1.0601,0.0136,-0.6585
16.949,0,0,0,0,0,0,-0.1444,-0.1385,-0.7019,0.0169,0.001,-0.0362,1035,64330,-0.3445,-0.6225,-0.7305,0,1.3858,0,-0.66,1.0602,0.0136,-0.6585
16.969,0,0,0,0,0,0,-0.1432,-0.1438,-0.7018,0.0168,0.0022,-0.0359,1036,64330,-0.2035,-0.5718,-0.7248,0,1.3898,0,-0.66,1.06,0.0135,-0.6584
16.989,0,0,0,0,0,0,-0.1417,-0.1491,-0.7018,0.0171,0.0026,-0.0366,1037,64330,-0.0623,-0.5213,-0.719,0,1.3938,0,-0.66,1.0601,0.0135,-0.6584
17.009,0,0,0,0,0,0,-0.1401,-0.1545,-0.7017,0.0169,-0.0021,-0.0343,1038,64330,0.0711,-0.4746,-0.7138,0,1.3978,0,-0.66,1.06,0.0136,-0.6583
17.029,0,0,0,0,0,0,-0.1382,-0.1599,-0.7015,0.0169,-0.0104,-0.0304,1039,64330,0.0623,-0.4793,-0.7143,0,1.4018,0,-0.66,1.06,0.0136,-0.6584
17.049,0,0,0,0,0,0,-0.1364,-0.1657,-0.7016,0.0161,-0.0155,-0.0296,1040,64330,-0.2992,-0.6773,-0.7367,0,1.4058,0,-0.66,1.0601,0.0135,-0.6585
17.069,0,0,0,0,0,0,-0.135,-0.1716,-0.7015,0.0166,-0.0139,-0.0325,1041,64330,-0.1599,-0.622,-0.7305,0,1.4098,0,-0.66,1.0601,0.0135,-0.6584
17.089,0,0,0,0,0,0,-0.1336,-0.1776,-0.7015,0.0164,-0.0105,-0.0354,1042,64330,-0.0205,-0.567,-0.7242,0,1.4138,0,-0.66,1.0601,0.0136,-0.6584
17.109,0,0,0,0,0,0,-0.1319,-0.1837,-0.7016,0.0161,-0.0112,-0.0334,1043,64330,0.0842,-0.5306,-0.7201,0,1.4178,0,-0.66,1.0601,0.0136,-0.6585
17.129,0,0,0,0,0,0,-0.1299,-0.1899,-0.7014,0.0167,-0.0165,-0.0308,1044,64330,-0.2312,-0.7289,-0.7426,0,1.4218,0,-0.66,1.0601,0.0135,-0.6584
17.149,0,0,0,0,0,0,-0.128,-0.1962,-0.7016,0.0161,-0.0201,-0.0296,1045,64330,-0.0941,-0.6686,-0.7357,0,1.4258,0,-0.66,1.0601,0.0136,-0.6585
17.169,0,0,0,0,0,0,-0.1262,-0.2026,-0.7017,0.016,-0.0186,-0.0327,1046,64330,0.0432,-0.6084,-0.7289,0,1.4298,0,-0.66,1.06,0.0136,-0.6584
17.189,0,0,0,0,0,0,-0.1244,-0.2092,-0.702,0.0161,-0.0167,-0.0353,1047,64330,0.0718,-0.6148,-0.7296,0,1.4338,0,-0.66,1.0601,0.0136,-0.6585
17.209,0,0,0,0,0,0,-0.1223,-0.216,-0.7021,0.0162,-0.0182,-0.0332,1048,64330,0.0378,-0.6618,-0.735,0,1.4378,0,-0.66,1.06,0.0135,-0.6584
17.229,0,0,0,0,0,0,-0.12,-0.2226,-0.702,0.0166,-0.0212,-0.0323,1049,64330,0.1392,-0.6204,-0.7303,0,1.4418,0,-0.66,1.0601,0.0136,-0.6584
17.249,0,0,0,0,0,0,-0.1179,-0.2295,-0.7025,0.0164,-0.0202,-0.0339,1050,64330,-0.1449,-0.8449,-0.7557,0,1.4458,0,-0.66,1.0601,0.0136,-0.6585
17.269,0,0,0,0,0,0,-0.1157,-0.2366,-0.7026,0.0164,-0.0199,-0.0349,1051,64330,-0.0125,-0.7748,-0.7477,0,1.4498,0,-0.66,1.06,0.0135,-0.6584
17.289,0,0,0,0,0,0,-0.1131,-0.2437,-0.7028,0.0168,-0.0232,-0.0344,1052,64330,0.1199,-0.7048,-0.7398,0,1.4538,0,-0.66,1.0601,0.0135,-0.6585
17.309,0,0,0,0,0,0,-0.1105,-0.2507,-0.7032,0.0164,-0.0269,-0.0327,1053,64330,0.1301,-0.7285,-0.7425,0,1.4578,0,-0.66,1.0601,0.0136,-0.6584
17.329,0,0,0,0,0,0,-0.1077,-0.2579,-0.7036,0.017,-0.0321,-0.031,1054,64330,0.1587,-0.7386,-0.7436,0,1.4618,0,-0.66,1.0601,0.0136,-0.6585
17.349,0,0,0,0,0,0,-0.105,-0.2656,-0.704,0.0167,-0.0348,-0.0332,1055,64330,0.1454,-0.7848,-0.7489,0,1.4658,0,-0.66,1.06,0.0135,-0.6584
17.369,0,0,0,0,0,0,-0.1023,-0.2732,-0.7046,0.0165,-0.0325,-0.0387,1056,64330,0.2263,-0.7503,-0.745,0,1.4698,0,-0.66,1.06,0.0135,-0.6584
17.389,0,0,0,0,0,0,-0.0995,-0.2811,-0.7051,0.016,-0.0319,-0.0423,1057,64330,0.054,-0.9486,-0.7675,0,1.4738,0,-0.66,1.0601,0.0136,-0.6584
17.409,0,0,0,0,0,0,-0.0963,-0.2889,-0.7056,0.0161,-0.0343,-0.0438,1058,64330,0.1786,-0.8656,-0.7581,0,1.4778,0,-0.66,1.0601,0.0136,-0.6585
17.429,0,0,0,0,0,0,-0.0929,-0.2968,-0.7063,0.0159,-0.0382,-0.0431,1059,64330,0.3022,-0.7839,-0.7488,0,1.4818,0,-0.66,1.0601,0.0136,-0.6584
17.449,0,0,0,0,0,0,-0.0895,-0.3047,-0.7068,0.0158,-0.0431,-0.0433,1060,64330,0.2958,-0.7916,-0.7497,0,1.4858,0,-0.66,1.06,0.0136,-0.6584
17.469,0,0,0,0,0,0,-0.0857,-0.313,-0.7075,0.0159,-0.0491,-0.0434,1061,64330,0.0327,-1.1175,-0.7866,0,1.4898,0,-0.66,1.06,0.0136,-0.6584
17.489,0,0,0,0,0,0,-0.0819,-0.3214,-0.7081,0.0152,-0.0523,-0.0464,1062,64330,0.1516,-1.0266,-0.7763,0,1.4938,0,-0.66,1.0601,0.0135,-0.6585
17.509,0,0,0,0,0,0,-0.078,-0.3301,-0.7088,0.0156,-0.0535,-0.0512,1063,64330,0.2706,-0.9358,-0.766,0,1.4978,0,-0.66,1.0601,0.0135,-0.6584
17.529,0,0,0,0,0,0,-0.0737,-0.3388,-0.7095,0.0149,-0.0571,-0.0527,1064,64330,0.3783,-0.8589,-0.7573,0,1.5018,0,-0.66,1.0601,0.0136,-0.6584
17.549,0,0,0,0,0,0,-0.0691,-0.3476,-0.7101,0.0156,-0.063,-0.0515,1065,64330,0.1388,-1.2272,-0.7991,0,1.5058,0,-0.66,1.06,0.0136,-0.6584
17.569,0,0,0,0,0,0,-0.0645,-0.3565,-0.7109,0.0159,-0.0665,-0.0527,1066,64330,0.2503,-1.1274,-0.7877,0,1.5098,0,-0.66,1.0601,0.0136,-0.6585
17.589,0,0,0,0,0,0,-0.0599,-0.3659,-0.7118,0.015,-0.0656,-0.0583,1067,64330,0.3619,-1.0278,-0.7765,0,1.5138,0,-0.66,1.06,0.0136,-0.6584
17.609,0,0,0,0,0,0,-0.055,-0.3754,-0.7128,0.0153,-0.0647,-0.0635,1068,64330,0.4737,-0.9284,-0.7652,0,1.5178,0,-0.66,1.0601,0.0136,-0.6585
17.629,0,0,0,0,0,0,-0.0494,-0.3849,-0.7138,0.0149,-0.0677,-0.0625,1069,64330,0.2925,-1.3001,-0.8073,0,1.5218,0,-0.66,1.0601,0.0136,-0.6585
17.649,0,0,0,0,0,0,-0.0439,-0.3944,-0.7146,0.0149,-0.0694,-0.0623,1070,64330,0.3954,-1.1916,-0.795,0,1.5258,0,-0.66,1.06,0.0136,-0.6584
17.669,0,0,0,0,0,0,-0.0383,-0.4045,-0.716,0.0148,-0.0686,-0.0672,1071,64330,0.4985,-1.0834,-0.7827,0,1.5298,0,-0.66,1.0601,0.0136,-0.6585
17.689,0,0,0,0,0,0,-0.0323,-0.4147,-0.7173,0.0139,-0.0705,-0.0727,1072,64330,0.5929,-0.9926,-0.7725,0,1.5338,0,-0.66,1.06,0.0136,-0.6584
17.709,0,0,0,0,0,0,-0.0258,-0.4252,-0.7183,0.0137,-0.0763,-0.0744,1073,64330,0.4639,-1.3842,-0.8168,0,1.5378,0,-0.66,1.0601,0.0135,-0.6585
17.729,0,0,0,0,0,0,-0.019,-0.4355,-0.7193,0.0136,-0.0819,-0.0757,1074,64330,0.5557,-1.2663,-0.8035,0,1.5418,0,-0.66,1.0601,0.0136,-0.6585
17.749,0,0,0,0,0,0,-0.0122,-0.4464,-0.7206,0.0131,-0.0852,-0.0809,1075,64330,0.6477,-1.1486,-0.7901,0,1.5458,0,-0.66,1.0601,0.0136,-0.6584
17.769,0,0,0,0,0,0,-0.0051,-0.4573,-0.7218,0.013,-0.0889,-0.084,1076,64330,0.7344,-1.0467,-0.7786,0,1.5498,0,-0.66,1.0601,0.0136,-0.6585
17.789,0,0,0,0,0,0,0.0026,-0.4686,-0.7228,0.0135,-0.0957,-0.0812,1077,64330,0.6661,-1.4517,-0.8245,0,1.5538,0,-0.66,1.06,0.0135,-0.6584
17.809,0,0,0,0,0,0,0.0107,-0.4797,-0.7237,0.0141,-0.104,-0.0767,1078,64330,0.7442,-1.3245,-0.8101,0,1.5578,0,-0.66,1.0601,0.0135,-0.6585
17.829,0,0,0,0,0,0,0.0189,-0.4912,-0.7248,0.0143,-0.1101,-0.0761,1079,64330,0.8226,-1.1974,-0.7957,0,1.5618,0,-0.66,1.0601,0.0136,-0.6585
17.849,0,0,0,0,0,0,0.0275,-0.503,-0.7259,0.0142,-0.1153,-0.0768,1080,64330,0.8987,-1.0842,-0.7829,0,1.5658,0,-0.66,1.0601,0.0136,-0.6585
17.869,0,0,0,0,0,0,0.0367,-0.5152,-0.727,0.0147,-0.123,-0.0741,1081,64330,0.8989,-1.4906,-0.8289,0,1.5698,0,-0.66,1.06,0.0135,-0.6585
17.889,0,0,0,0,0,0,0.0463,-0.5271,-0.728,0.0146,-0.1299,-0.0703,1082,64330,0.9604,-1.3546,-0.8135,0,1.5738,0,-0.66,1.0601,0.0136,-0.6584
17.909,0,0,0,0,0,0,0.0562,-0.5395,-0.7296,0.0142,-0.1358,-0.0722,1083,64330,1.0223,-1.2189,-0.7981,0,1.5778,0,-0.66,1.0601,0.0135,-0.6585
17.929,0,0,0,0,0,0,0.0666,-0.5521,-0.7312,0.0138,-0.1427,-0.0744,1084,64330,1.0841,-1.0987,-0.7845,0,1.5818,0,-0.66,1.0601,0.0135,-0.6585
17.949,0,0,0,0,0,0,0.0778,-0.5647,-0.7327,0.0144,-0.1508,-0.0713,1085,64330,1.1571,-1.4761,-0.8273,0,1.5858,0,-0.66,1.0601,0.0135,-0.6585
17.969,0,0,0,0,0,0,0.0893,-0.577,-0.7346,0.0153,-0.1591,-0.0657,1086,64330,1.1991,-1.333,-0.8111,0,1.5898,0,-0.66,1.0601,0.0136,-0.6585
17.989,0,0,0,0,0,0,0.1013,-0.5899,-0.737,0.0149,-0.1677,-0.0649,1087,64330,1.2414,-1.19,-0.7949,0,1.5938,0,-0.66,1.0601,0.0136,-0.6584
18.009,0,0,0,0,0,0,0.1139,-0.6026,-0.7392,0.0153,-0.1765,-0.0629,1088,64330,1.2912,-1.0937,-0.7839,0,1.5978,0,-0.66,1.06,0.0135,-0.6585
18.029,0,0,0,0,0,0,0.1271,-0.6155,-0.7414,0.0164,-0.1853,-0.0547,1089,64330,1.4098,-1.3234,-0.81,0,1.6018,0,-0.66,1.0601,0.0135,-0.6585
18.049,0,0,0,0,0,0,0.1411,-0.6281,-0.7439,0.0177,-0.1956,-0.0464,1090,64330,1.4317,-1.176,-0.7933,0,1.6058,0,-0.66,1.0601,0.0136,-0.6586
18.069,0,0,0,0,0,0,0.1554,-0.6411,-0.7466,0.0182,-0.2056,-0.0428,1091,64330,1.454,-1.0286,-0.7766,0,1.6098,0,-0.66,1.0601,0.0135,-0.6585
18.089,0,0,0,0,0,0,0.1706,-0.6539,-0.7494,0.0186,-0.2145,-0.0392,1092,64330,1.6566,-1.3566,-0.8137,0,1.6138,0,-0.66,1.0601,0.0135,-0.6585
18.109,0,0,0,0,0,0,0.1864,-0.6667,-0.7521,0.0199,-0.2231,-0.0315,1093,64330,1.6523,-1.2076,-0.7968,0,1.6178,0,-0.66,1.0601,0.0135,-0.6585
18.129,0,0,0,0,0,0,0.203,-0.6793,-0.7549,0.0211,-0.2328,-0.0237,1094,64330,1.6485,-1.0586,-0.78,0,1.6218,0,-0.66,1.0601,0.0136,-0.6585
18.149,0,0,0,0,0,0,0.2202,-0.6919,-0.7578,0.0219,-0.2419,-0.0167,1095,64330,1.6636,-0.9429,-0.7668,0,1.6258,0,-0.66,1.0601,0.0135,-0.6585
18.169,0,0,0,0,0,0,0.2382,-0.7043,-0.7602,0.0242,-0.2509,-0.0065,1096,64330,1.8685,-1.1271,-0.7877,0,1.6298,0,-0.66,1.0601,0.0136,-0.6586
18.189,0,0,0,0,0,0,0.2571,-0.7165,-0.7629,0.0261,-0.2616,0.0022,1097,64330,1.8381,-0.9812,-0.7712,0,1.6338,0,-0.66,1.0601,0.0136,-0.6586
18.209,0,0,0,0,0,0,0.2768,-0.7286,-0.7655,0.0266,-0.2723,0.0083,1098,64330,1.8083,-0.8351,-0.7546,0,1.6378,0,-0.66,1.0601,0.0136,-0.6585
18.229,0,0,0,0,0,0,0.2972,-0.7406,-0.7679,0.0281,-0.2812,0.0163,1099,64330,2.0431,-0.9883,-0.7719,0,1.6418,0,-0.66,1.0601,0.0135,-0.6585
18.249,0,0,0,0,0,0,0.3184,-0.7518,-0.7703,0.031,-0.2859,0.0307,1100,64330,1.9875,-0.8499,-0.7563,0,1.6458,0,-0.66,1.0601,0.0135,-0.6585
18.269,0,0,0,0,0,0,0.3403,-0.7626,-0.7725,0.0339,-0.2918,0.0446,1101,64330,1.9324,-0.7113,-0.7406,0,1.6498,0,-0.66,1.0601,0.0136,-0.6584
18.289,0,0,0,0,0,0,0.3631,-0.7731,-0.7748,0.0375,-0.2983,0.0589,1102,64330,2.1766,-0.8205,-0.7529,0,1.6538,0,-0.66,1.0601,0.0136,-0.6586
18.309,0,0,0,0,0,0,0.3867,-0.7832,-0.7765,0.0403,-0.3033,0.0724,1103,64330,2.0968,-0.6943,-0.7386,0,1.6578,0,-0.66,1.0601,0.0136,-0.6585
18.329,0,0,0,0,0,0,0.4112,-0.7931,-0.7782,0.0433,-0.3089,0.0863,1104,64330,2.0175,-0.5678,-0.7243,0,1.6618,0,-0.66,1.0601,0.0135,-0.6585
18.349,0,0,0,0,0,0,0.4366,-0.8023,-0.7796,0.0462,-0.3138,0.0995,1105,64330,2.3631,-0.6984,-0.739,0,1.6658,0,-0.66,1.0601,0.0135,-0.6585
18.369,0,0,0,0,0,0,0.4626,-0.8107,-0.7806,0.0498,-0.3152,0.1161,1106,64330,2.2578,-0.5923,-0.727,0,1.6698,0,-0.66,1.0601,0.0135,-0.6585
18.389,0,0,0,0,0,0,0.4897,-0.819,-0.7813,0.0534,-0.3158,0.1324,1107,64330,2.1528,-0.4858,-0.715,0,1.6738,0,-0.66,1.0601,0.0135,-0.6585
18.409,0,0,0,0,0,0,0.5175,-0.8261,-0.7817,0.0571,-0.3162,0.1488,1108,64330,2.1409,-0.4212,-0.7077,0,1.6778,0,-0.66,1.0601,0.0136,-0.6585
18.429,0,0,0,0,0,0,0.5458,-0.8324,-0.782,0.0607,-0.3125,0.1675,1109,64330,2.247,-0.4072,-0.7061,0,1.6818,0,-0.66,1.0601,0.0136,-0.6585
18.449,0,0,0,0,0,0,0.575,-0.8384,-0.7821,0.0644,-0.308,0.1846,1110,64330,2.1259,-0.3193,-0.6961,0,1.6858,0,-0.66,1.0601,0.0135,-0.6585
