time (s), accel_x (m/s^2), accel_y (m/s^2), accel_z (m/s^2), gyro_x (rad/s), gyro_y (rad/s), gyro_z (rad/s), x (m), y (m), z (m), yaw (rad), pitch (rad), roll (rad), mocap_counter, counter, desired x, desired y, desired z, desired yaw
0.0000, 0.0000, 0.0000, 0.0000, 0.0000, 0.0000, 0.0000, 0.0219, -0.0253, -0.0843, 0.0866, 0.0007, 0.0257, 153, 771640, 0.0000, 0.0000, -0.0000, 0.0000, 1.3670, 0.0743, -0.7526, 0.0000, 0.0000, 0.0000
0.0200, 0.0000, 0.0000, 0.0000, 0.0000, 0.0000, 0.0000, 0.0219, -0.0254, -0.0843, 0.0870, 0.0013, 0.0255, 154, 771640, 0.0000, 0.0000, -0.0000, 0.0000, 1.3670, 0.0743, -0.7526, 0.0000, 0.0000, 0.0000
0.0400, 0.0000, 0.0000, 0.0000, 0.0000, 0.0000, 0.0000, 0.0217, -0.0254, -0.0843, 0.0867, 0.0020, 0.0252, 155, 771640, 0.0000, 0.0000, -0.0000, 0.0000, 1.3671, 0.0743, -0.7527, 0.0000, 0.0000, 0.0000
0.0600, 0.0000, 0.0000, 0.0000, 0.0000, 0.0000, 0.0000, 0.0218, -0.0254, -0.0843, 0.0869, 0.0023, 0.0257, 156, 771640, 0.0000, 0.0000, -0.0000, 0.0000, 1.3670, 0.0743, -0.7526, 0.0000, 0.0000, 0.0000
0.0800, 0.0000, 0.0000, 0.0000, 0.0000, 0.0000, 0.0000, 0.0218, -0.0255, -0.0844, 0.0870, 0.0027, 0.0250, 157, 771640, 0.0000, 0.0000, -0.0000, 0.0000, 1.3670, 0.0742, -0.7527, 0.0000, 0.0000, 0.0000
0.1000, 0.0000, 0.0000, 0.0000, 0.0000, 0.0000, 0.0000, 0.0216, -0.0253, -0.0841, 0.0868, 0.0033, 0.0251, 158, 771640, 0.0000, 0.0000, -0.0000, 0.0000, 1.3673, 0.0746, -0.7527, 0.0000, 0.0000, 0.0000
0.1200, 0.0000, 0.0000, 0.0000, 0.0000, 0.0000, 0.0000, 0.0216, -0.0254, -0.0843, 0.0874, 0.0041, 0.0253, 159, 771640, 0.0000, 0.0000, -0.0000, 0.0000, 1.3670, 0.0744, -0.7527, 0.0000, 0.0000, 0.0000
0.1400, 0.0000, 0.0000, 0.0000, 0.0000, 0.0000, 0.0000, 0.0215, -0.0255, -0.0843, 0.0868, 0.0046, 0.0250, 160, 771640, 0.0000, 0.0000, -0.0000, 0.0000, 1.3670, 0.0742, -0.7528, 0.0000, 0.0000, 0.0000
0.1600, 0.0000, 0.0000, 0.0000, 0.0000, 0.0000, 0.0000, 0.0216, -0.0254, -0.0841, 0.0868, 0.0048, 0.0258, 161, 771640, 0.0000, 0.0000, -0.0000, 0.0000, 1.3669, 0.0746, -0.7526, 0.0000, 0.0000, 0.0000
0.1800, 0.0000, 0.0000, 0.0000, 0.0000, 0.0000, 0.0000, 0.0215, -0.0255, -0.0842, 0.0870, 0.0047, 0.0249, 162, 771640, 0.0000, 0.0000, -0.0000, 0.0000, 1.3668, 0.0743, -0.7528, 0.0000, 0.0000, 0.0000
0.2000, 0.0000, 0.0000, 0.0000, 0.0000, 0.0000, 0.0000, 0.0216, -0.0254, -0.0843, 0.0871, 0.0044, 0.0257, 163, 771640, 0.0000, 0.0000, -0.0000, 0.0000, 1.3668, 0.0741, -0.7528, 0.0000, 0.0000, 0.0000
0.2200, 0.0000, 0.0000, 0.0000, 0.0000, 0.0000, 0.0000, 0.0216, -0.0254, -0.0843, 0.0868, 0.0039, 0.0257, 164, 771640, 0.0000, 0.0000, -0.0000, 0.0000, 1.3669, 0.0741, -0.7528, 0.0000, 0.0000, 0.0000
0.2400, 0.0000, 0.0000, 0.0000, 0.0000, 0.0000, 0.0000, 0.0216, -0.0254, -0.0843, 0.0870, 0.0032, 0.0257, 165, 771640, 0.0000, 0.0000, -0.0000, 0.0000, 1.3670, 0.0743, -0.7528, 0.0000, 0.0000, 0.0000
0.2600, 0.0000, 0.0000, 0.0000, 0.0000, 0.0000, 0.0000, 0.0217, -0.0253, -0.0842, 0.0868, 0.0031, 0.0262, 166, 771640, 0.0000, 0.0000, -0.0000, 0.0000, 1.3669, 0.0742, -0.7528, 0.0000, 0.0000, 0.0000
0.2800, 0.0000, 0.0000, 0.0000, 0.0000, 0.0000, 0.0000, 0.0218, -0.0254, -0.0844, 0.0867, 0.0024, 0.0256, 167, 771640, 0.0000, 0.0000, -0.0000, 0.0000, 1.3669, 0.0741, -0.7529, 0.0000, 0.0000, 0.0000
0.3000, 0.0000, 0.0000, 0.0000, 0.0000, 0.0000, 0.0000, 0.0218, -0.0253, -0.0843, 0.0869, 0.0018, 0.0262, 168, 771640, 0.0000, 0.0000, -0.0000, 0.0000, 1.3667, 0.0741, -0.7527, 0.0000, 0.0000, 0.0000
0.3200, 0.0000, 0.0000, 0.0000, 0.0000, 0.0000, 0.0000, 0.0218, -0.0253, -0.0843, 0.0867, 0.0017, 0.0258, 169, 771640, 0.0000, 0.0000, -0.0000, 0.0000, 1.3669, 0.0745, -0.7526, 0.0000, 0.0000, 0.0000
0.3400, 0.0000, 0.0000, 0.0000, 0.0000, 0.0000, 0.0000, 0.0217, -0.0253, -0.0843, 0.0870, 0.0011, 0.0263, 170, 771640, 0.0000, 0.0000, -0.0000, 0.0000, 1.3668, 0.0745, -0.7527, 0.0000, 0.0000, 0.0000
0.3600, 0.0000, 0.0000, 0.0000, 0.0000, 0.0000, 0.0000, 0.0220, -0.0253, -0.0843, 0.0868, 0.0011, 0.0262, 171, 771640, 0.0000, 0.0000, -0.0000, 0.0000, 1.3668, 0.0739, -0.7528, 0.0000, 0.0000, 0.0000
0.3800, 0.0000, 0.0000, 0.0000, 0.0000, 0.0000, 0.0000, 0.0219, -0.0252, -0.0842, 0.0870, 0.0007, 0.0261, 172, 771640, 0.0000, 0.0000, -0.0000, 0.0000, 1.3669, 0.0741, -0.7530, 0.0000, 0.0000, 0.0000
0.4000, 0.0000, 0.0000, 0.0000, 0.0000, 0.0000, 0.0000, 0.0220, -0.0254, -0.0842, 0.0869, 0.0009, 0.0264, 173, 771640, 0.0000, 0.0000, -0.0000, 0.0000, 1.3669, 0.0742, -0.7529, 0.0000, 0.0000, 0.0000
0.4200, 0.0000, 0.0000, 0.0000, 0.0000, 0.0000, 0.0000, 0.0218, -0.0253, -0.0844, 0.0869, 0.0008, 0.0259, 174, 771640, 0.0000, 0.0000, -0.0000, 0.0000, 1.3669, 0.0740, -0.7529, 0.0000, 0.0000, 0.0000
0.4400, 0.0000, 0.0000, 0.0000, 0.0000, 0.0000, 0.0000, 0.0219, -0.0253, -0.0843, 0.0869, 0.0009, 0.0261, 175, 771640, 0.0000, 0.0000, -0.0000, 0.0000, 1.3669, 0.0743, -0.7528, 0.0000, 0.0000, 0.0000
0.4600, 0.0000, 0.0000, 0.0000, 0.0000, 0.0000, 0.0000, 0.0219, -0.0253, -0.0842, 0.0870, 0.0011, 0.0259, 176, 771640, 0.0000, 0.0000, -0.0000, 0.0000, 1.3671, 0.0743, -0.7527, 0.0000, 0.0000, 0.0000
0.4800, 0.0000, 0.0000, 0.0000, 0.0000, 0.0000, 0.0000, 0.0218, -0.0253, -0.0843, 0.0868, 0.0013, 0.0257, 177, 771640, 0.0000, 0.0000, -0.0000, 0.0000, 1.3669, 0.0742, -0.7530, 0.0000, 0.0000, 0.0000
0.5000, 0.0000, 0.0000, 0.0000, 0.0000, 0.0000, 0.0000, 0.0219, -0.0254, -0.0844, 0.0867, 0.0019, 0.0256, 178, 771640, 0.0000, 0.0000, -0.0000, 0.0000, 1.3672, 0.0742, -0.7528, 0.0000, 0.0000, 0.0000
0.5200, 0.0000, 0.0000, 0.0000, 0.0000, 0.0000, 0.0000, 0.0218, -0.0254, -0.0844, 0.0864, 0.0017, 0.0254, 179, 771640, 0.0000, 0.0000, -0.0000, 0.0000, 1.3672, 0.0741, -0.7528, 0.0000, 0.0000, 0.0000
0.5400, 0.0000, 0.0000, 0.0000, 0.0000, 0.0000, 0.0000, 0.0219, -0.0253, -0.0843, 0.0868, 0.0014, 0.0266, 180, 771640, 0.0000, 0.0000, -0.0000, 0.0000, 1.3672, 0.0743, -0.7528, 0.0000, 0.0000, 0.0000
0.5600, 0.0000, 0.0000, 0.0000, 0.0000, 0.0000, 0.0000, 0.0218, -0.0253, -0.0842, 0.0872, 0.0011, 0.0260, 181, 771640, 0.0000, 0.0000, -0.0000, 0.0000, 1.3672, 0.0743, -0.7527, 0.0000, 0.0000, 0.0000
0.5800, 0.0000, 0.0000, 0.0000, 0.0000, 0.0000, 0.0000, 0.0219, -0.0253, -0.0844, 0.0869, 0.0008, 0.0258, 182, 771640, 0.0000, 0.0000, -0.0000, 0.0000, 1.3670, 0.0743, -0.7527, 0.0000, 0.0000, 0.0000
0.6000, 0.0000, 0.0000, 0.0000, 0.0000, 0.0000, 0.0000, 0.0219, -0.0253, -0.0843, 0.0872, 0.0003, 0.0254, 183, 771640, 0.0000, 0.0000, -0.0000, 0.0000, 1.3671, 0.0744, -0.7526, 0.0000, 0.0000, 0.0000
0.6200, 0.0000, 0.0000, 0.0000, 0.0000, 0.0000, 0.0000, 0.0220, -0.0253, -0.0843, 0.0869, -0.0001, 0.0256, 184, 771640, 0.0000, 0.0000, -0.0000, 0.0000, 1.3670, 0.0744, -0.7526, 0.0000, 0.0000, 0.0000
0.6400, 0.0000, 0.0000, 0.0000, 0.0000, 0.0000, 0.0000, 0.0220, -0.0254, -0.0845, 0.0869, -0.0012, 0.0257, 185, 771640, 0.0000, 0.0000, -0.0000, 0.0000, 1.3670, 0.0743, -0.7526, 0.0000, 0.0000, 0.0000
0.6600, 0.0000, 0.0000, 0.0000, 0.0000, 0.0000, 0.0000, 0.0221, -0.0253, -0.0844, 0.0867, -0.0014, 0.0255, 186, 771640, 0.0000, 0.0000, -0.0000, 0.0000, 1.3668, 0.0743, -0.7524, 0.0000, 0.0000, 0.0000
0.6800, 0.0000, 0.0000, 0.0000, 0.0000, 0.0000, 0.0000, 0.0221, -0.0254, -0.0844, 0.0867, -0.0019, 0.0259, 187, 771640, 0.0000, 0.0000, -0.0000, 0.0000, 1.3667, 0.0745, -0.7524, 0.0000, 0.0000, 0.0000
0.7000, 0.0000, 0.0000, 0.0000, 0.0000, 0.0000, 0.0000, 0.0221, -0.0253, -0.0845, 0.0869, -0.0026, 0.0249, 188, 771640, 0.0000, 0.0000, -0.0000, 0.0000, 1.3669, 0.0744, -0.7525, 0.0000, 0.0000, 0.0000
0.7200, 0.0000, 0.0000, 0.0000, 0.0000, 0.0000, 0.0000, 0.0221, -0.0254, -0.0844, 0.0868, -0.0028, 0.0252, 189, 771640, 0.0000, 0.0000, -0.0000, 0.0000, 1.3668, 0.0743, -0.7524, 0.0000, 0.0000, 0.0000
0.7400, 0.0000, 0.0000, 0.0000, 0.0000, 0.0000, 0.0000, 0.0222, -0.0254, -0.0845, 0.0868, -0.0021, 0.0245, 190, 771640, 0.0000, 0.0000, -0.0000, 0.0000, 1.3670, 0.0742, -0.7526, 0.0000, 0.0000, 0.0000
0.7600, 0.0000, 0.0000, 0.0000, 0.0000, 0.0000, 0.0000, 0.0221, -0.0253, -0.0843, 0.0867, -0.0022, 0.0253, 191, 771640, 0.0000, 0.0000, -0.0000, 0.0000, 1.3670, 0.0743, -0.7526, 0.0000, 0.0000, 0.0000
0.7800, 0.0000, 0.0000, 0.0000, 0.0000, 0.0000, 0.0000, 0.0220, -0.0254, -0.0844, 0.0869, -0.0012, 0.0249, 192, 771640, 0.0000, 0.0000, -0.0000, 0.0000, 1.3669, 0.0743, -0.7526, 0.0000, 0.0000, 0.0000
0.8000, 0.0000, 0.0000, 0.0000, 0.0000, 0.0000, 0.0000, 0.0220, -0.0254, -0.0844, 0.0869, -0.0008, 0.0244, 193, 771640, 0.0000, 0.0000, -0.0000, 0.0000, 1.3668, 0.0742, -0.7526, 0.0000, 0.0000, 0.0000
0.8200, 0.0000, 0.0000, 0.0000, 0.0000, 0.0000, 0.0000, 0.0220, -0.0254, -0.0844, 0.0868, -0.0003, 0.0255, 194, 771640, 0.0000, 0.0000, -0.0000, 0.0000, 1.3669, 0.0742, -0.7526, 0.0000, 0.0000, 0.0000
0.8400, 0.0000, 0.0000, 0.0000, 0.0000, 0.0000, 0.0000, 0.0220, -0.0254, -0.0842, 0.0871, -0.0001, 0.0246, 195, 771640, 0.0000, 0.0000, -0.0000, 0.0000, 1.3667, 0.0744, -0.7523, 0.0000, 0.0000, 0.0000
0.8600, 0.0000, 0.0000, 0.0000, 0.0000, 0.0000, 0.0000, 0.0219, -0.0253, -0.0845, 0.0871, 0.0001, 0.0248, 196, 771640, 0.0000, 0.0000, -0.0000, 0.0000, 1.3667, 0.0745, -0.7522, 0.0000, 0.0000, 0.0000
0.8800, 0.0000, 0.0000, 0.0000, 0.0000, 0.0000, 0.0000, 0.0220, -0.0254, -0.0843, 0.0869, 0.0003, 0.0247, 197, 771640, 0.0000, 0.0000, -0.0000, 0.0000, 1.3667, 0.0744, -0.7525, 0.0000, 0.0000, 0.0000
0.9000, 0.0000, 0.0000, 0.0000, 0.0000, 0.0000, 0.0000, 0.0220, -0.0254, -0.0843, 0.0870, 0.0000, 0.0248, 198, 771640, 0.0000, 0.0000, -0.0000, 0.0000, 1.3669, 0.0744, -0.7524, 0.0000, 0.0000, 0.0000
0.9200, 0.0000, 0.0000, 0.0000, 0.0000, 0.0000, 0.0000, 0.0219, -0.0253, -0.0844, 0.0869, -0.0001, 0.0253, 199, 771640, 0.0000, 0.0000, -0.0000, 0.0000, 1.3669, 0.0743, -0.7524, 0.0000, 0.0000, 0.0000
0.9400, 0.0000, 0.0000, 0.0000, 0.0000, 0.0000, 0.0000, 0.0220, -0.0254, -0.0844, 0.0869, -0.0005, 0.0245, 200, 771640, 0.0000, 0.0000, -0.0000, 0.0000, 1.3669, 0.0743, -0.7524, 0.0000, 0.0000, 0.0000
0.9600, 0.0000, 0.0000, 0.0000, 0.0000, 0.0000, 0.0000, 0.0221, -0.0254, -0.0845, 0.0867, -0.0011, 0.0253, 201, 771640, 0.0000, 0.0000, -0.0000, 0.0000, 1.3668, 0.0742, -0.7524, 0.0000, 0.0000, 0.0000
0.9800, 0.0000, 0.0000, 0.0000, 0.0000, 0.0000, 0.0000, 0.0221, -0.0252, -0.0845, 0.0865, -0.0021, 0.0255, 202, 771640, 0.0000, 0.0000, -0.0000, 0.0000, 1.3669, 0.0744, -0.7524, 0.0000, 0.0000, 0.0000
1.0000, 0.0000, 0.0000, 0.0000, 0.0000, 0.0000, 0.0000, 0.0221, -0.0253, -0.0847, 0.0867, -0.0028, 0.0248, 203, 771640, 0.0000, 0.0000, -0.0000, 0.0000, 1.3669, 0.0743, -0.7525, 0.0000, 0.0000, 0.0000
1.0200, 0.0000, 0.0000, 0.0000, 0.0000, 0.0000, 0.0000, 0.0220, -0.0253, -0.0851, 0.0867, -0.0039, 0.0245, 204, 771640, 0.0000, 0.0000, -0.0000, 0.0000, 1.3669, 0.0742, -0.7525, 0.0000, 0.0000, 0.0000
1.0400, 0.0000, 0.0000, 0.0000, 0.0000, 0.0000, 0.0000, 0.0222, -0.0253, -0.0855, 0.0868, -0.0051, 0.0241, 205, 771640, 0.0000, 0.0000, -0.0000, 0.0000, 1.3669, 0.0743, -0.7524, 0.0000, 0.0000, 0.0000
1.0600, 0.0000, 0.0000, 0.0000, 0.0000, 0.0000, 0.0000, 0.0222, -0.0251, -0.0857, 0.0870, -0.0060, 0.0237, 206, 771640, 0.0000, 0.0000, -0.0000, 0.0000, 1.3669, 0.0746, -0.7524, 0.0000, 0.0000, 0.0000
1.0800, 0.0000, 0.0000, 0.0000, 0.0000, 0.0000, 0.0000, 0.0224, -0.0250, -0.0862, 0.0869, -0.0071, 0.0244, 207, 771640, 0.0000, 0.0000, -0.0000, 0.0000, 1.3670, 0.0744, -0.7525, 0.0000, 0.0000, 0.0000
1.1000, 0.0000, 0.0000, 0.0000, 0.0000, 0.0000, 0.0000, 0.0225, -0.0248, -0.0872, 0.0871, -0.0092, 0.0236, 208, 771640, 0.0000, 0.0000, -0.0000, 0.0000, 1.3668, 0.0743, -0.7523, 0.0000, 0.0000, 0.0000
1.1200, 0.0000, 0.0000, 0.0000, 0.0000, 0.0000, 0.0000, 0.0228, -0.0245, -0.0888, 0.0853, -0.0122, 0.0250, 209, 771640, 0.0000, 0.0000, -0.0000, 0.0000, 1.3669, 0.0743, -0.7524, 0.0000, 0.0000, 0.0000
1.1400, 0.0000, 0.0000, 0.0000, 0.0000, 0.0000, 0.0000, 0.0229, -0.0240, -0.0900, 0.0847, -0.0146, 0.0292, 210, 771640, 0.0000, 0.0000, -0.0000, 0.0000, 1.3670, 0.0745, -0.7525, 0.0000, 0.0000, 0.0000
1.1600, 0.0000, 0.0000, 0.0000, 0.0000, 0.0000, 0.0000, 0.0233, -0.0236, -0.0929, 0.0833, -0.0157, 0.0310, 211, 771640, 0.0000, 0.0000, -0.0000, 0.0000, 1.3671, 0.0744, -0.7525, 0.0000, 0.0000, 0.0000
1.1800, 0.0000, 0.0000, 0.0000, 0.0000, 0.0000, 0.0000, 0.0235, -0.0230, -0.0957, 0.0821, -0.0162, 0.0341, 212, 771640, 0.0000, 0.0000, -0.0000, 0.0000, 1.3671, 0.0745, -0.7525, 0.0000, 0.0000, 0.0000
1.2000, 0.0000, 0.0000, 0.0000, 0.0000, 0.0000, 0.0000, 0.0240, -0.0222, -0.0987, 0.0806, -0.0157, 0.0368, 213, 771640, 0.0000, 0.0000, -0.0000, 0.0000, 1.3672, 0.0745, -0.7525, 0.0000, 0.0000, 0.0000
1.2200, 0.0000, 0.0000, 0.0000, 0.0000, 0.0000, 0.0000, 0.0244, -0.0215, -0.1025, 0.0789, -0.0157, 0.0382, 214, 771640, 0.0000, 0.0000, -0.0000, 0.0000, 1.3672, 0.0746, -0.7525, 0.0000, 0.0000, 0.0000
1.2400, 0.0000, 0.0000, 0.0000, 0.0000, 0.0000, 0.0000, 0.0249, -0.0208, -0.1062, 0.0778, -0.0151, 0.0395, 215, 771640, 0.0000, 0.0000, -0.0000, 0.0000, 1.3674, 0.0744, -0.7529, 0.0000, 0.0000, 0.0000
1.2600, 0.0000, 0.0000, 0.0000, 0.0000, 0.0000, 0.0000, 0.0255, -0.0198, -0.1105, 0.0749, -0.0149, 0.0407, 216, 771640, 0.0000, 0.0000, -0.0000, 0.0000, 1.3673, 0.0743, -0.7527, 0.0000, 0.0000, 0.0000
1.2790, 0.0000, 0.0000, 0.0000, 0.0000, 0.0000, 0.0000, 0.0261, -0.0185, -0.1149, 0.0736, -0.0153, 0.0447, 217, 771640, 0.0000, 0.0000, -0.0000, 0.0000, 1.3674, 0.0744, -0.7528, 0.0000, 0.0000, 0.0000
1.3000, 0.0000, 0.0000, 0.0000, 0.0000, 0.0000, 0.0000, 0.0268, -0.0172, -0.1203, 0.0712, -0.0143, 0.0468, 218, 771640, 0.0000, 0.0000, -0.0000, 0.0000, 1.3675, 0.0745, -0.7528, 0.0000, 0.0000, 0.0000
1.3200, 0.0000, 0.0000, 0.0000, 0.0000, 0.0000, 0.0000, 0.0278, -0.0157, -0.1263, 0.0689, -0.0150, 0.0457, 219, 771640, 0.0000, 0.0000, -0.0000, 0.0000, 1.3674, 0.0745, -0.7528, 0.0000, 0.0000, 0.0000
1.3400, 0.0000, 0.0000, 0.0000, 0.0000, 0.0000, 0.0000, 0.0284, -0.0142, -0.1320, 0.0675, -0.0155, 0.0474, 220, 771640, 0.0000, 0.0000, -0.0000, 0.0000, 1.3672, 0.0743, -0.7527, 0.0000, 0.0000, 0.0000
1.3600, 0.0000, 0.0000, 0.0000, 0.0000, 0.0000, 0.0000, 0.0292, -0.0126, -0.1383, 0.0658, -0.0152, 0.0443, 221, 771640, 0.0000, 0.0000, -0.0000, 0.0000, 1.3671, 0.0742, -0.7526, 0.0000, 0.0000, 0.0000
1.3800, 0.0000, 0.0000, 0.0000, 0.0000, 0.0000, 0.0000, 0.0301, -0.0108, -0.1446, 0.0634, -0.0136, 0.0423, 222, 771640, 0.0000, 0.0000, -0.0000, 0.0000, 1.3670, 0.0742, -0.7526, 0.0000, 0.0000, 0.0000
1.4000, 0.0000, 0.0000, 0.0000, 0.0000, 0.0000, 0.0000, 0.0308, -0.0090, -0.1506, 0.0616, -0.0125, 0.0388, 223, 771640, 0.0000, 0.0000, -0.0000, 0.0000, 1.3669, 0.0743, -0.7525, 0.0000, 0.0000, 0.0000
1.4200, 0.0000, 0.0000, 0.0000, 0.0000, 0.0000, 0.0000, 0.0315, -0.0070, -0.1573, 0.0595, -0.0114, 0.0359, 224, 771640, 0.0000, 0.0000, -0.0000, 0.0000, 1.3670, 0.0743, -0.7527, 0.0000, 0.0000, 0.0000
1.4400, 0.0000, 0.0000, 0.0000, 0.0000, 0.0000, 0.0000, 0.0326, -0.0045, -0.1637, 0.0577, -0.0106, 0.0346, 225, 771640, 0.0000, 0.0000, -0.0000, 0.0000, 1.3671, 0.0744, -0.7526, 0.0000, 0.0000, 0.0000
1.4590, 0.0000, 0.0000, 0.0000, 0.0000, 0.0000, 0.0000, 0.0336, -0.0023, -0.1710, 0.0559, -0.0103, 0.0331, 226, 771640, 0.0000, 0.0000, -0.0000, 0.0000, 1.3669, 0.0742, -0.7526, 0.0000, 0.0000, 0.0000
1.4800, 0.0000, 0.0000, 0.0000, 0.0000, 0.0000, 0.0000, 0.0345, 0.0004, -0.1784, 0.0539, -0.0094, 0.0325, 227, 771640, 0.0000, 0.0000, -0.0000, 0.0000, 1.3670, 0.0744, -0.7526, 0.0000, 0.0000, 0.0000
1.5000, 0.0000, 0.0000, 0.0000, 0.0000, 0.0000, 0.0000, 0.0354, 0.0033, -0.1858, 0.0521, -0.0080, 0.0311, 228, 771640, 0.0000, 0.0000, -0.0000, 0.0000, 1.3670, 0.0744, -0.7525, 0.0000, 0.0000, 0.0000
1.5200, 0.0000, 0.0000, 0.0000, 0.0000, 0.0000, 0.0000, 0.0363, 0.0060, -0.1937, 0.0502, -0.0065, 0.0290, 229, 771640, 0.0000, 0.0000, -0.0000, 0.0000, 1.3669, 0.0743, -0.7527, 0.0000, 0.0000, 0.0000
1.5400, 0.0000, 0.0000, 0.0000, 0.0000, 0.0000, 0.0000, 0.0372, 0.0091, -0.2011, 0.0484, -0.0058, 0.0276, 230, 771640, 0.0000, 0.0000, -0.0000, 0.0000, 1.3668, 0.0743, -0.7526, 0.0000, 0.0000, 0.0000
1.5600, 0.0000, 0.0000, 0.0000, 0.0000, 0.0000, 0.0000, 0.0381, 0.0122, -0.2088, 0.0470, -0.0037, 0.0248, 231, 771640, 0.0000, 0.0000, -0.0000, 0.0000, 1.3670, 0.0744, -0.7527, 0.0000, 0.0000, 0.0000
1.5800, 0.0000, 0.0000, 0.0000, 0.0000, 0.0000, 0.0000, 0.0392, 0.0155, -0.2165, 0.0454, -0.0024, 0.0223, 232, 771640, 0.0000, 0.0000, -0.0000, 0.0000, 1.3670, 0.0745, -0.7527, 0.0000, 0.0000, 0.0000
1.6000, 0.0000, 0.0000, 0.0000, 0.0000, 0.0000, 0.0000, 0.0401, 0.0187, -0.2241, 0.0435, -0.0006, 0.0201, 233, 771640, 0.0000, 0.0000, -0.0000, 0.0000, 1.3670, 0.0743, -0.7528, 0.0000, 0.0000, 0.0000
1.6200, 0.0000, 0.0000, 0.0000, 0.0000, 0.0000, 0.0000, 0.0408, 0.0220, -0.2314, 0.0421, 0.0005, 0.0170, 234, 771640, 0.0000, 0.0000, -0.0000, 0.0000, 1.3670, 0.0743, -0.7527, 0.0000, 0.0000, 0.0000
1.6400, 0.0000, 0.0000, 0.0000, 0.0000, 0.0000, 0.0000, 0.0417, 0.0255, -0.2384, 0.0406, 0.0016, 0.0133, 235, 771640, 0.0000, 0.0000, -0.0000, 0.0000, 1.3671, 0.0745, -0.7525, 0.0000, 0.0000, 0.0000
1.6600, 0.0000, 0.0000, 0.0000, 0.0000, 0.0000, 0.0000, 0.0427, 0.0288, -0.2451, 0.0396, 0.0022, 0.0107, 236, 771640, 0.0000, 0.0000, -0.0000, 0.0000, 1.3671, 0.0746, -0.7528, 0.0000, 0.0000, 0.0000
1.6800, 0.0000, 0.0000, 0.0000, 0.0000, 0.0000, 0.0000, 0.0434, 0.0322, -0.2518, 0.0380, 0.0035, 0.0086, 237, 771640, 0.0000, 0.0000, -0.0000, 0.0000, 1.3672, 0.0745, -0.7528, 0.0000, 0.0000, 0.0000
1.7000, 0.0000, 0.0000, 0.0000, 0.0000, 0.0000, 0.0000, 0.0440, 0.0356, -0.2582, 0.0371, 0.0045, 0.0059, 238, 771640, 0.0000, 0.0000, -0.0000, 0.0000, 1.3675, 0.0742, -0.7530, 0.0000, 0.0000, 0.0000
1.7200, 0.0000, 0.0000, 0.0000, 0.0000, 0.0000, 0.0000, 0.0446, 0.0391, -0.2642, 0.0357, 0.0045, 0.0033, 239, 771640, 0.0000, 0.0000, -0.0000, 0.0000, 1.3672, 0.0747, -0.7525, 0.0000, 0.0000, 0.0000
1.7400, 0.0000, 0.0000, 0.0000, 0.0000, 0.0000, 0.0000, 0.0455, 0.0424, -0.2702, 0.0346, 0.0046, 0.0005, 240, 771640, 0.0000, 0.0000, -0.0000, 0.0000, 1.3672, 0.0747, -0.7525, 0.0000, 0.0000, 0.0000
1.7600, 0.0000, 0.0000, 0.0000, 0.0000, 0.0000, 0.0000, 0.0463, 0.0457, -0.2758, 0.0334, 0.0043, -0.0023, 241, 771640, 0.0000, 0.0000, -0.0000, 0.0000, 1.3670, 0.0744, -0.7521, 0.0000, 0.0000, 0.0000
1.7790, 0.0000, 0.0000, 0.0000, 0.0000, 0.0000, 0.0000, 0.0468, 0.0492, -0.2812, 0.0326, 0.0049, -0.0045, 242, 771640, 0.0000, 0.0000, -0.0000, 0.0000, 1.3669, 0.0744, -0.7514, 0.0000, 0.0000, 0.0000
1.7990, 0.0000, 0.0000, 0.0000, 0.0000, 0.0000, 0.0000, 0.0474, 0.0524, -0.2864, 0.0316, 0.0056, -0.0078, 243, 771640, 0.0000, 0.0000, -0.0000, 0.0000, 1.3670, 0.0740, -0.7518, 0.0000, 0.0000, 0.0000
1.8200, 0.0000, 0.0000, 0.0000, 0.0000, 0.0000, 0.0000, 0.0479, 0.0556, -0.2914, 0.0306, 0.0055, -0.0095, 244, 771640, 0.0000, 0.0000, -0.0000, 0.0000, 1.3666, 0.0737, -0.7522, 0.0000, 0.0000, 0.0000
1.8400, 0.0000, 0.0000, 0.0000, 0.0000, 0.0000, 0.0000, 0.0486, 0.0587, -0.2963, 0.0299, 0.0049, -0.0125, 245, 771640, 0.0000, 0.0000, -0.0000, 0.0000, 1.3669, 0.0739, -0.7522, 0.0000, 0.0000, 0.0000
1.8590, 0.0000, 0.0000, 0.0000, 0.0000, 0.0000, 0.0000, 0.0490, 0.0619, -0.3008, 0.0290, 0.0045, -0.0144, 246, 771640, 0.0000, 0.0000, -0.0000, 0.0000, 1.3674, 0.0744, -0.7523, 0.0000, 0.0000, 0.0000
1.8800, 0.0000, 0.0000, 0.0000, 0.0000, 0.0000, 0.0000, 0.0495, 0.0649, -0.3054, 0.0284, 0.0048, -0.0178, 247, 771640, 0.0000, 0.0000, -0.0000, 0.0000, 1.3674, 0.0748, -0.7524, 0.0000, 0.0000, 0.0000
1.9000, 0.0000, 0.0000, 0.0000, 0.0000, 0.0000, 0.0000, 0.0499, 0.0678, -0.3097, 0.0276, 0.0049, -0.0193, 248, 771640, 0.0000, 0.0000, -0.0000, 0.0000, 1.3674, 0.0745, -0.7524, 0.0000, 0.0000, 0.0000
1.9200, 0.0000, 0.0000, 0.0000, 0.0000, 0.0000, 0.0000, 0.0503, 0.0705, -0.3138, 0.0268, 0.0042, -0.0218, 249, 771640, 0.0000, 0.0000, -0.0000, 0.0000, 1.3677, 0.0744, -0.7527, 0.0000, 0.0000, 0.0000
1.9400, 0.0000, 0.0000, 0.0000, 0.0000, 0.0000, 0.0000, 0.0508, 0.0733, -0.3180, 0.0262, 0.0036, -0.0231, 250, 771640, 0.0000, 0.0000, -0.0000, 0.0000, 1.3676, 0.0745, -0.7527, 0.0000, 0.0000, 0.0000
1.9600, 0.0000, 0.0000, 0.0000, 0.0000, 0.0000, 0.0000, 0.0510, 0.0760, -0.3221, 0.0255, 0.0029, -0.0237, 251, 771640, 0.0000, 0.0000, -0.0000, 0.0000, 1.3676, 0.0745, -0.7527, 0.0000, 0.0000, 0.0000
1.9800, 0.0000, 0.0000, 0.0000, 0.0000, 0.0000, 0.0000, 0.0513, 0.0785, -0.3262, 0.0246, 0.0034, -0.0243, 252, 771640, 0.0000, 0.0000, -0.0000, 0.0000, 1.3673, 0.0744, -0.7527, 0.0000, 0.0000, 0.0000
2.0000, 0.0000, 0.0000, 0.0000, 0.0000, 0.0000, 0.0000, 0.0514, 0.0810, -0.3302, 0.0241, 0.0031, -0.0258, 253, 771640, 0.0000, 0.0000, -0.0000, 0.0000, 1.3676, 0.0745, -0.7526, 0.0000, 0.0000, 0.0000
2.0200, 0.0000, 0.0000, 0.0000, 0.0000, 0.0000, 0.0000, 0.0516, 0.0834, -0.3345, 0.0235, 0.0033, -0.0270, 254, 771640, 0.0000, 0.0000, -0.0000, 0.0000, 1.3677, 0.0747, -0.7526, 0.0000, 0.0000, 0.0000
2.0400, 0.0000, 0.0000, 0.0000, 0.0000, 0.0000, 0.0000, 0.0518, 0.0854, -0.3384, 0.0230, 0.0029, -0.0276, 255, 771640, 0.0000, 0.0000, -0.0000, 0.0000, 1.3675, 0.0745, -0.7526, 0.0000, 0.0000, 0.0000
2.0600, 0.0000, 0.0000, 0.0000, 0.0000, 0.0000, 0.0000, 0.0519, 0.0875, -0.3426, 0.0227, 0.0029, -0.0280, 256, 771640, 0.0000, 0.0000, -0.0000, 0.0000, 1.3673, 0.0744, -0.7527, 0.0000, 0.0000, 0.0000
2.0800, 0.0000, 0.0000, 0.0000, 0.0000, 0.0000, 0.0000, 0.0520, 0.0895, -0.3463, 0.0220, 0.0030, -0.0287, 257, 771640, 0.0000, 0.0000, -0.0000, 0.0000, 1.3672, 0.0746, -0.7526, 0.0000, 0.0000, 0.0000
2.1000, 0.0000, 0.0000, 0.0000, 0.0000, 0.0000, 0.0000, 0.0519, 0.0913, -0.3504, 0.0214, 0.0025, -0.0283, 258, 771640, 0.0000, 0.0000, -0.0000, 0.0000, 1.3671, 0.0744, -0.7526, 0.0000, 0.0000, 0.0000
2.1200, 0.0000, 0.0000, 0.0000, 0.0000, 0.0000, 0.0000, 0.0520, 0.0930, -0.3543, 0.0211, 0.0017, -0.0285, 259, 771640, 0.0000, 0.0000, -0.0000, 0.0000, 1.3672, 0.0744, -0.7526, 0.0000, 0.0000, 0.0000
2.1400, 0.0000, 0.0000, 0.0000, 0.0000, 0.0000, 0.0000, 0.0520, 0.0945, -0.3582, 0.0209, 0.0005, -0.0283, 260, 771640, 0.0000, 0.0000, -0.0000, 0.0000, 1.3672, 0.0743, -0.7525, 0.0000, 0.0000, 0.0000
2.1600, 0.0000, 0.0000, 0.0000, 0.0000, 0.0000, 0.0000, 0.0520, 0.0963, -0.3618, 0.0208, 0.0000, -0.0276, 261, 771640, 0.0000, 0.0000, -0.0000, 0.0000, 1.3673, 0.0745, -0.7525, 0.0000, 0.0000, 0.0000
2.1800, 0.0000, 0.0000, 0.0000, 0.0000, 0.0000, 0.0000, 0.0519, 0.0976, -0.3658, 0.0202, -0.0015, -0.0273, 262, 771640, 0.0000, 0.0000, -0.0000, 0.0000, 1.3677, 0.0746, -0.7526, 0.0000, 0.0000, 0.0000
2.2000, 0.0000, 0.0000, 0.0000, 0.0000, 0.0000, 0.0000, 0.0518, 0.0987, -0.3695, 0.0199, -0.0022, -0.0263, 263, 771640, 0.0000, 0.0000, -0.0000, 0.0000, 1.3675, 0.0746, -0.7526, 0.0000, 0.0000, 0.0000
2.2200, 0.0000, 0.0000, 0.0000, 0.0000, 0.0000, 0.0000, 0.0517, 0.0998, -0.3731, 0.0195, -0.0030, -0.0260, 264, 771640, 0.0000, 0.0000, -0.0000, 0.0000, 1.3675, 0.0745, -0.7525, 0.0000, 0.0000, 0.0000
2.2400, 0.0000, 0.0000, 0.0000, 0.0000, 0.0000, 0.0000, 0.0515, 0.1009, -0.3765, 0.0194, -0.0027, -0.0254, 265, 771640, 0.0000, 0.0000, -0.0000, 0.0000, 1.3676, 0.0747, -0.7526, 0.0000, 0.0000, 0.0000
2.2600, 0.0000, 0.0000, 0.0000, 0.0000, 0.0000, 0.0000, 0.0513, 0.1018, -0.3800, 0.0192, -0.0030, -0.0250, 266, 771640, 0.0000, 0.0000, -0.0000, 0.0000, 1.3673, 0.0745, -0.7525, 0.0000, 0.0000, 0.0000
2.2800, 0.0000, 0.0000, 0.0000, 0.0000, 0.0000, 0.0000, 0.0511, 0.1024, -0.3832, 0.0189, -0.0022, -0.0243, 267, 771640, 0.0000, 0.0000, -0.0000, 0.0000, 1.3675, 0.0744, -0.7526, 0.0000, 0.0000, 0.0000
2.3000, 0.0000, 0.0000, 0.0000, 0.0000, 0.0000, 0.0000, 0.0509, 0.1032, -0.3865, 0.0187, -0.0030, -0.0238, 268, 771640, 0.0000, 0.0000, -0.0000, 0.0000, 1.3674, 0.0745, -0.7525, 0.0000, 0.0000, 0.0000
2.3200, 0.0000, 0.0000, 0.0000, 0.0000, 0.0000, 0.0000, 0.0508, 0.1038, -0.3896, 0.0185, -0.0036, -0.0224, 269, 771640, 0.0000, 0.0000, -0.0000, 0.0000, 1.3674, 0.0745, -0.7525, 0.0000, 0.0000, 0.0000
2.3400, 0.0000, 0.0000, 0.0000, 0.0000, 0.0000, 0.0000, 0.0506, 0.1043, -0.3928, 0.0180, -0.0045, -0.0223, 270, 771640, 0.0000, 0.0000, -0.0000, 0.0000, 1.3675, 0.0745, -0.7526, 0.0000, 0.0000, 0.0000
2.3600, 0.0000, 0.0000, 0.0000, 0.0000, 0.0000, 0.0000, 0.0505, 0.1045, -0.3957, 0.0183, -0.0059, -0.0217, 271, 771640, 0.0000, 0.0000, -0.0000, 0.0000, 1.3675, 0.0746, -0.7524, 0.0000, 0.0000, 0.0000
2.3800, 0.0000, 0.0000, 0.0000, 0.0000, 0.0000, 0.0000, 0.0502, 0.1049, -0.3987, 0.0177, -0.0068, -0.0199, 272, 771640, 0.0000, 0.0000, -0.0000, 0.0000, 1.3678, 0.0749, -0.7525, 0.0000, 0.0000, 0.0000
2.4000, 0.0000, 0.0000, 0.0000, 0.0000, 0.0000, 0.0000, 0.0502, 0.1051, -0.4015, 0.0175, -0.0077, -0.0186, 273, 771640, 0.0000, 0.0000, -0.0000, 0.0000, 1.3675, 0.0747, -0.7525, 0.0000, 0.0000, 0.0000
2.4200, 0.0000, 0.0000, 0.0000, 0.0000, 0.0000, 0.0000, 0.0499, 0.1052, -0.4044, 0.0172, -0.0086, -0.0174, 274, 771640, 0.0000, 0.0000, -0.0000, 0.0000, 1.3677, 0.0746, -0.7526, 0.0000, 0.0000, 0.0000
2.4400, 0.0000, 0.0000, 0.0000, 0.0000, 0.0000, 0.0000, 0.0497, 0.1053, -0.4069, 0.0173, -0.0089, -0.0165, 275, 771640, 0.0000, 0.0000, -0.0000, 0.0000, 1.3673, 0.0744, -0.7525, 0.0000, 0.0000, 0.0000
2.4600, 0.0000, 0.0000, 0.0000, 0.0000, 0.0000, 0.0000, 0.0495, 0.1052, -0.4099, 0.0172, -0.0091, -0.0163, 276, 771640, 0.0000, 0.0000, -0.0000, 0.0000, 1.3676, 0.0746, -0.7525, 0.0000, 0.0000, 0.0000
2.4800, 0.0000, 0.0000, 0.0000, 0.0000, 0.0000, 0.0000, 0.0493, 0.1051, -0.4124, 0.0172, -0.0089, -0.0144, 277, 771640, 0.0000, 0.0000, -0.0000, 0.0000, 1.3674, 0.0745, -0.7526, 0.0000, 0.0000, 0.0000
2.5000, 0.0000, 0.0000, 0.0000, 0.0000, 0.0000, 0.0000, 0.0491, 0.1049, -0.4151, 0.0166, -0.0090, -0.0132, 278, 771640, 0.0000, 0.0000, -0.0000, 0.0000, 1.3674, 0.0745, -0.7526, 0.0000, 0.0000, 0.0000
2.5200, 0.0000, 0.0000, 0.0000, 0.0000, 0.0000, 0.0000, 0.0489, 0.1047, -0.4175, 0.0167, -0.0084, -0.0117, 279, 771640, 0.0000, 0.0000, -0.0000, 0.0000, 1.3675, 0.0746, -0.7526, 0.0000, 0.0000, 0.0000
2.5400, 0.0000, 0.0000, 0.0000, 0.0000, 0.0000, 0.0000, 0.0488, 0.1046, -0.4200, 0.0167, -0.0085, -0.0108, 280, 771640, 0.0000, 0.0000, -0.0000, 0.0000, 1.3676, 0.0747, -0.7526, 0.0000, 0.0000, 0.0000
2.5600, 0.0000, 0.0000, 0.0000, 0.0000, 0.0000, 0.0000, 0.0489, 0.1043, -0.4222, 0.0166, -0.0090, -0.0090, 281, 771640, 0.0000, 0.0000, -0.0000, 0.0000, 1.3676, 0.0747, -0.7526, 0.0000, 0.0000, 0.0000
2.5800, 0.0000, 0.0000, 0.0000, 0.0000, 0.0000, 0.0000, 0.0487, 0.1039, -0.4244, 0.0163, -0.0095, -0.0081, 282, 771640, 0.0000, 0.0000, -0.0000, 0.0000, 1.3674, 0.0745, -0.7526, 0.0000, 0.0000, 0.0000
2.6000, 0.0000, 0.0000, 0.0000, 0.0000, 0.0000, 0.0000, 0.0487, 0.1035, -0.4263, 0.0165, -0.0098, -0.0074, 283, 771640, 0.0000, 0.0000, -0.0000, 0.0000, 1.3674, 0.0745, -0.7525, 0.0000, 0.0000, 0.0000
2.6190, 0.0000, 0.0000, 0.0000, 0.0000, 0.0000, 0.0000, 0.0486, 0.1030, -0.4281, 0.0163, -0.0107, -0.0065, 284, 771640, 0.0000, 0.0000, -0.0000, 0.0000, 1.3674, 0.0745, -0.7526, 0.0000, 0.0000, 0.0000
2.6400, 0.0000, 0.0000, 0.0000, 0.0000, 0.0000, 0.0000, 0.0488, 0.1024, -0.4295, 0.0163, -0.0113, -0.0056, 285, 771640, 0.0000, 0.0000, -0.0000, 0.0000, 1.3675, 0.0746, -0.7526, 0.0000, 0.0000, 0.0000
2.6600, 0.0000, 0.0000, 0.0000, 0.0000, 0.0000, 0.0000, 0.0489, 0.1019, -0.4308, 0.0163, -0.0114, -0.0055, 286, 771640, 0.0000, 0.0000, -0.0000, 0.0000, 1.3678, 0.0746, -0.7526, 0.0000, 0.0000, 0.0000
2.6800, 0.0000, 0.0000, 0.0000, 0.0000, 0.0000, 0.0000, 0.0489, 0.1014, -0.4317, 0.0166, -0.0111, -0.0038, 287, 771640, 0.0000, 0.0000, -0.0000, 0.0000, 1.3679, 0.0749, -0.7526, 0.0000, 0.0000, 0.0000
2.7000, 0.0000, 0.0000, 0.0000, 0.0000, 0.0000, 0.0000, 0.0488, 0.1007, -0.4325, 0.0166, -0.0109, -0.0031, 288, 771640, 0.0000, 0.0000, -0.0000, 0.0000, 1.3678, 0.0747, -0.7525, 0.0000, 0.0000, 0.0000
2.7200, 0.0000, 0.0000, 0.0000, 0.0000, 0.0000, 0.0000, 0.0489, 0.1001, -0.4331, 0.0167, -0.0104, -0.0012, 289, 771640, 0.0000, 0.0000, -0.0000, 0.0000, 1.3678, 0.0746, -0.7526, 0.0000, 0.0000, 0.0000
2.7400, 0.0000, 0.0000, 0.0000, 0.0000, 0.0000, 0.0000, 0.0490, 0.0996, -0.4334, 0.0168, -0.0096, -0.0005, 290, 771640, 0.0000, 0.0000, -0.0000, 0.0000, 1.3677, 0.0746, -0.7526, 0.0000, 0.0000, 0.0000
2.7590, 0.0000, 0.0000, 0.0000, 0.0000, 0.0000, 0.0000, 0.0492, 0.0988, -0.4337, 0.0168, -0.0090, 0.0009, 291, 771640, 0.0000, 0.0000, -0.0000, 0.0000, 1.3674, 0.0745, -0.7525, 0.0000, 0.0000, 0.0000
2.7800, 0.0000, 0.0000, 0.0000, 0.0000, 0.0000, 0.0000, 0.0494, 0.0980, -0.4338, 0.0166, -0.0085, 0.0009, 292, 771640, 0.0000, 0.0000, -0.0000, 0.0000, 1.3678, 0.0746, -0.7526, 0.0000, 0.0000, 0.0000
2.8000, 0.0000, 0.0000, 0.0000, 0.0000, 0.0000, 0.0000, 0.0495, 0.0972, -0.4336, 0.0166, -0.0081, 0.0022, 293, 771640, 0.0000, 0.0000, -0.0000, 0.0000, 1.3676, 0.0745, -0.7524, 0.0000, 0.0000, 0.0000
2.8200, 0.0000, 0.0000, 0.0000, 0.0000, 0.0000, 0.0000, 0.0495, 0.0967, -0.4333, 0.0165, -0.0076, 0.0043, 294, 771640, 0.0000, 0.0000, -0.0000, 0.0000, 1.3680, 0.0748, -0.7527, 0.0000, 0.0000, 0.0000
2.8400, 0.0000, 0.0000, 0.0000, 0.0000, 0.0000, 0.0000, 0.0498, 0.0961, -0.4328, 0.0165, -0.0078, 0.0070, 295, 771640, 0.0000, 0.0000, -0.0000, 0.0000, 1.3681, 0.0749, -0.7526, 0.0000, 0.0000, 0.0000
2.8600, 0.0000, 0.0000, 0.0000, 0.0000, 0.0000, 0.0000, 0.0500, 0.0953, -0.4323, 0.0166, -0.0090, 0.0087, 296, 771640, 0.0000, 0.0000, -0.0000, 0.0000, 1.3680, 0.0747, -0.7526, 0.0000, 0.0000, 0.0000
2.8800, 0.0000, 0.0000, 0.0000, 0.0000, 0.0000, 0.0000, 0.0503, 0.0946, -0.4317, 0.0163, -0.0090, 0.0101, 297, 771640, 0.0000, 0.0000, -0.0000, 0.0000, 1.3680, 0.0747, -0.7527, 0.0000, 0.0000, 0.0000
2.9000, 0.0000, 0.0000, 0.0000, 0.0000, 0.0000, 0.0000, 0.0505, 0.0939, -0.4312, 0.0169, -0.0093, 0.0099, 298, 771640, 0.0000, 0.0000, -0.0000, 0.0000, 1.3681, 0.0747, -0.7526, 0.0000, 0.0000, 0.0000
2.9200, 0.0000, 0.0000, 0.0000, 0.0000, 0.0000, 0.0000, 0.0509, 0.0932, -0.4306, 0.0169, -0.0097, 0.0105, 299, 771640, 0.0000, 0.0000, -0.0000, 0.0000, 1.3678, 0.0746, -0.7527, 0.0000, 0.0000, 0.0000
2.9400, 0.0000, 0.0000, 0.0000, 0.0000, 0.0000, 0.0000, 0.0512, 0.0924, -0.4302, 0.0171, -0.0099, 0.0110, 300, 771640, 0.0000, 0.0000, -0.0000, 0.0000, 1.3680, 0.0747, -0.7527, 0.0000, 0.0000, 0.0000
2.9600, 0.0000, 0.0000, 0.0000, 0.0000, 0.0000, 0.0000, 0.0516, 0.0919, -0.4296, 0.0167, -0.0098, 0.0120, 301, 771640, 0.0000, 0.0000, -0.0000, 0.0000, 1.3675, 0.0744, -0.7526, 0.0000, 0.0000, 0.0000
2.9800, 0.0000, 0.0000, 0.0000, 0.0000, 0.0000, 0.0000, 0.0519, 0.0913, -0.4293, 0.0166, -0.0093, 0.0122, 302, 771640, 0.0000, 0.0000, -0.0000, 0.0000, 1.3675, 0.0745, -0.7526, 0.0000, 0.0000, 0.0000
3.0000, 0.0000, 0.0000, 0.0000, 0.0000, 0.0000, 0.0000, 0.0522, 0.0908, -0.4287, 0.0165, -0.0096, 0.0133, 303, 771640, 0.0000, 0.0000, -0.0000, 0.0000, 1.3674, 0.0744, -0.7526, 0.0000, 0.0000, 0.0000
3.0200, 0.0000, 0.0000, 0.0000, 0.0000, 0.0000, 0.0000, 0.0527, 0.0902, -0.4283, 0.0166, -0.0099, 0.0134, 304, 771640, 0.0000, 0.0000, -0.0000, 0.0000, 1.3674, 0.0743, -0.7526, 0.0000, 0.0000, 0.0000
3.0400, 0.0000, 0.0000, 0.0000, 0.0000, 0.0000, 0.0000, 0.0532, 0.0897, -0.4278, 0.0162, -0.0098, 0.0145, 305, 771640, 0.0000, 0.0000, -0.0000, 0.0000, 1.3675, 0.0745, -0.7526, 0.0000, 0.0000, 0.0000
3.0600, 0.0000, 0.0000, 0.0000, 0.0000, 0.0000, 0.0000, 0.0536, 0.0892, -0.4274, 0.0160, -0.0093, 0.0151, 306, 771640, 0.0000, 0.0000, -0.0000, 0.0000, 1.3675, 0.0745, -0.7525, 0.0000, 0.0000, 0.0000
3.0800, 0.0000, 0.0000, 0.0000, 0.0000, 0.0000, 0.0000, 0.0541, 0.0886, -0.4270, 0.0157, -0.0089, 0.0151, 307, 771640, 0.0000, 0.0000, -0.0000, 0.0000, 1.3679, 0.0746, -0.7526, 0.0000, 0.0000, 0.0000
3.1000, 0.0000, 0.0000, 0.0000, 0.0000, 0.0000, 0.0000, 0.0545, 0.0882, -0.4265, 0.0158, -0.0085, 0.0156, 308, 771640, 0.0000, 0.0000, -0.0000, 0.0000, 1.3679, 0.0746, -0.7526, 0.0000, 0.0000, 0.0000
3.1200, 0.0000, 0.0000, 0.0000, 0.0000, 0.0000, 0.0000, 0.0550, 0.0878, -0.4260, 0.0157, -0.0075, 0.0159, 309, 771640, 0.0000, 0.0000, -0.0000, 0.0000, 1.3677, 0.0747, -0.7525, 0.0000, 0.0000, 0.0000
3.1400, 0.0000, 0.0000, 0.0000, 0.0000, 0.0000, 0.0000, 0.0554, 0.0874, -0.4255, 0.0159, -0.0061, 0.0165, 310, 771640, 0.0000, 0.0000, -0.0000, 0.0000, 1.3679, 0.0746, -0.7526, 0.0000, 0.0000, 0.0000
3.1600, 0.0000, 0.0000, 0.0000, 0.0000, 0.0000, 0.0000, 0.0558, 0.0870, -0.4249, 0.0158, -0.0042, 0.0165, 311, 771640, 0.0000, 0.0000, -0.0000, 0.0000, 1.3678, 0.0745, -0.7526, 0.0000, 0.0000, 0.0000
3.1800, 0.0000, 0.0000, 0.0000, 0.0000, 0.0000, 0.0000, 0.0562, 0.0867, -0.4243, 0.0157, -0.0035, 0.0173, 312, 771640, 0.0000, 0.0000, -0.0000, 0.0000, 1.3679, 0.0746, -0.7526, 0.0000, 0.0000, 0.0000
3.2000, 0.0000, 0.0000, 0.0000, 0.0000, 0.0000, 0.0000, 0.0566, 0.0865, -0.4237, 0.0153, -0.0027, 0.0176, 313, 771640, 0.0000, 0.0000, -0.0000, 0.0000, 1.3676, 0.0746, -0.7525, 0.0000, 0.0000, 0.0000
3.2200, 0.0000, 0.0000, 0.0000, 0.0000, 0.0000, 0.0000, 0.0571, 0.0862, -0.4233, 0.0148, -0.0021, 0.0180, 314, 771640, 0.0000, 0.0000, -0.0000, 0.0000, 1.3676, 0.0745, -0.7525, 0.0000, 0.0000, 0.0000
3.2400, 0.0000, 0.0000, 0.0000, 0.0000, 0.0000, 0.0000, 0.0575, 0.0861, -0.4227, 0.0148, -0.0012, 0.0189, 315, 771640, 0.0000, 0.0000, -0.0000, 0.0000, 1.3674, 0.0744, -0.7524, 0.0000, 0.0000, 0.0000
3.2600, 0.0000, 0.0000, 0.0000, 0.0000, 0.0000, 0.0000, 0.0579, 0.0860, -0.4222, 0.0147, -0.0004, 0.0185, 316, 771640, 0.0000, 0.0000, -0.0000, 0.0000, 1.3676, 0.0745, -0.7525, 0.0000, 0.0000, 0.0000
3.2800, 0.0000, 0.0000, 0.0000, 0.0000, 0.0000, 0.0000, 0.0582, 0.0859, -0.4218, 0.0144, 0.0001, 0.0186, 317, 771640, 0.0000, 0.0000, -0.0000, 0.0000, 1.3675, 0.0746, -0.7525, 0.0000, 0.0000, 0.0000
3.3000, 0.0000, 0.0000, 0.0000, 0.0000, 0.0000, 0.0000, 0.0587, 0.0858, -0.4215, 0.0142, 0.0003, 0.0184, 318, 771640, 0.0000, 0.0000, -0.0000, 0.0000, 1.3674, 0.0745, -0.7525, 0.0000, 0.0000, 0.0000
3.3200, 0.0000, 0.0000, 0.0000, 0.0000, 0.0000, 0.0000, 0.0591, 0.0857, -0.4211, 0.0139, 0.0009, 0.0176, 319, 771640, 0.0000, 0.0000, -0.0000, 0.0000, 1.3674, 0.0744, -0.7525, 0.0000, 0.0000, 0.0000
3.3400, 0.0000, 0.0000, 0.0000, 0.0000, 0.0000, 0.0000, 0.0594, 0.0857, -0.4207, 0.0140, 0.0015, 0.0175, 320, 771640, 0.0000, 0.0000, -0.0000, 0.0000, 1.3674, 0.0745, -0.7525, 0.0000, 0.0000, 0.0000
3.3600, 0.0000, 0.0000, 0.0000, 0.0000, 0.0000, 0.0000, 0.0598, 0.0857, -0.4205, 0.0136, 0.0017, 0.0173, 321, 771640, 0.0000, 0.0000, -0.0000, 0.0000, 1.3673, 0.0745, -0.7524, 0.0000, 0.0000, 0.0000
3.3800, 0.0000, 0.0000, 0.0000, 0.0000, 0.0000, 0.0000, 0.0601, 0.0857, -0.4202, 0.0135, 0.0014, 0.0172, 322, 771640, 0.0000, 0.0000, -0.0000, 0.0000, 1.3673, 0.0744, -0.7524, 0.0000, 0.0000, 0.0000
3.4000, 0.0000, 0.0000, 0.0000, 0.0000, 0.0000, 0.0000, 0.0605, 0.0859, -0.4200, 0.0137, 0.0009, 0.0167, 323, 771640, 0.0000, 0.0000, -0.0000, 0.0000, 1.3673, 0.0745, -0.7524, 0.0000, 0.0000, 0.0000
3.4200, 0.0000, 0.0000, 0.0000, 0.0000, 0.0000, 0.0000, 0.0608, 0.0860, -0.4199, 0.0137, 0.0010, 0.0164, 324, 771640, 0.0000, 0.0000, -0.0000, 0.0000, 1.3674, 0.0746, -0.7524, 0.0000, 0.0000, 0.0000
3.4400, 0.0000, 0.0000, 0.0000, 0.0000, 0.0000, 0.0000, 0.0611, 0.0861, -0.4197, 0.0136, 0.0007, 0.0163, 325, 771640, 0.0000, 0.0000, -0.0000, 0.0000, 1.3673, 0.0745, -0.7524, 0.0000, 0.0000, 0.0000
3.4600, 0.0000, 0.0000, 0.0000, 0.0000, 0.0000, 0.0000, 0.0614, 0.0863, -0.4197, 0.0132, 0.0016, 0.0166, 326, 771640, 0.0000, 0.0000, -0.0000, 0.0000, 1.3674, 0.0745, -0.7524, 0.0000, 0.0000, 0.0000
3.4800, 0.0000, 0.0000, 0.0000, 0.0000, 0.0000, 0.0000, 0.0615, 0.0866, -0.4194, 0.0131, 0.0022, 0.0166, 327, 771640, 0.0000, 0.0000, -0.0000, 0.0000, 1.3673, 0.0745, -0.7524, 0.0000, 0.0000, 0.0000
3.5000, 0.0000, 0.0000, 0.0000, 0.0000, 0.0000, 0.0000, 0.0617, 0.0868, -0.4194, 0.0129, 0.0029, 0.0161, 328, 771640, 0.0000, 0.0000, -0.0000, 0.0000, 1.3675, 0.0746, -0.7526, 0.0000, 0.0000, 0.0000
3.5200, 0.0000, 0.0000, 0.0000, 0.0000, 0.0000, 0.0000, 0.0619, 0.0870, -0.4192, 0.0125, 0.0033, 0.0158, 329, 771640, 0.0000, 0.0000, -0.0000, 0.0000, 1.3674, 0.0745, -0.7525, 0.0000, 0.0000, 0.0000
3.5400, 0.0000, 0.0000, 0.0000, 0.0000, 0.0000, 0.0000, 0.0620, 0.0873, -0.4190, 0.0126, 0.0030, 0.0145, 330, 771640, 0.0000, 0.0000, -0.0000, 0.0000, 1.3673, 0.0745, -0.7524, 0.0000, 0.0000, 0.0000
3.5600, 0.0000, 0.0000, 0.0000, 0.0000, 0.0000, 0.0000, 0.0622, 0.0875, -0.4187, 0.0123, 0.0027, 0.0147, 331, 771640, 0.0000, 0.0000, -0.0000, 0.0000, 1.3673, 0.0745, -0.7524, 0.0000, 0.0000, 0.0000
3.5800, 0.0000, 0.0000, 0.0000, 0.0000, 0.0000, 0.0000, 0.0624, 0.0879, -0.4183, 0.0123, 0.0022, 0.0137, 332, 771640, 0.0000, 0.0000, -0.0000, 0.0000, 1.3674, 0.0745, -0.7526, 0.0000, 0.0000, 0.0000
3.6000, 0.0000, 0.0000, 0.0000, 0.0000, 0.0000, 0.0000, 0.0624, 0.0881, -0.4180, 0.0119, 0.0029, 0.0135, 333, 771640, 0.0000, 0.0000, -0.0000, 0.0000, 1.3675, 0.0745, -0.7527, 0.0000, 0.0000, 0.0000
3.6200, 0.0000, 0.0000, 0.0000, 0.0000, 0.0000, 0.0000, 0.0625, 0.0885, -0.4174, 0.0122, 0.0040, 0.0125, 334, 771640, 0.0000, 0.0000, -0.0000, 0.0000, 1.3675, 0.0745, -0.7526, 0.0000, 0.0000, 0.0000
3.6400, 0.0000, 0.0000, 0.0000, 0.0000, 0.0000, 0.0000, 0.0625, 0.0889, -0.4169, 0.0121, 0.0047, 0.0121, 335, 771640, 0.0000, 0.0000, -0.0000, 0.0000, 1.3675, 0.0745, -0.7526, 0.0000, 0.0000, 0.0000
3.6600, 0.0000, 0.0000, 0.0000, 0.0000, 0.0000, 0.0000, 0.0626, 0.0892, -0.4163, 0.0120, 0.0047, 0.0119, 336, 771640, 0.0000, 0.0000, -0.0000, 0.0000, 1.3675, 0.0745, -0.7526, 0.0000, 0.0000, 0.0000
3.6800, 0.0000, 0.0000, 0.0000, 0.0000, 0.0000, 0.0000, 0.0625, 0.0894, -0.4157, 0.0120, 0.0043, 0.0110, 337, 771640, 0.0000, 0.0000, -0.0000, 0.0000, 1.3675, 0.0745, -0.7526, 0.0000, 0.0000, 0.0000
3.7000, 0.0000, 0.0000, 0.0000, 0.0000, 0.0000, 0.0000, 0.0626, 0.0896, -0.4149, 0.0117, 0.0036, 0.0108, 338, 771640, 0.0000, 0.0000, -0.0000, 0.0000, 1.3675, 0.0745, -0.7526, 0.0000, 0.0000, 0.0000
3.7200, 0.0000, 0.0000, 0.0000, 0.0000, 0.0000, 0.0000, 0.0625, 0.0900, -0.4142, 0.0117, 0.0029, 0.0101, 339, 771640, 0.0000, 0.0000, -0.0000, 0.0000, 1.3676, 0.0746, -0.7526, 0.0000, 0.0000, 0.0000
3.7400, 0.0000, 0.0000, 0.0000, 0.0000, 0.0000, 0.0000, 0.0625, 0.0902, -0.4134, 0.0115, 0.0022, 0.0099, 340, 771640, 0.0000, 0.0000, -0.0000, 0.0000, 1.3675, 0.0745, -0.7526, 0.0000, 0.0000, 0.0000
3.7600, 0.0000, 0.0000, 0.0000, 0.0000, 0.0000, 0.0000, 0.0625, 0.0904, -0.4124, 0.0117, 0.0013, 0.0097, 341, 771640, 0.0000, 0.0000, -0.0000, 0.0000, 1.3676, 0.0745, -0.7526, 0.0000, 0.0000, 0.0000
3.7800, 0.0000, 0.0000, 0.0000, 0.0000, 0.0000, 0.0000, 0.0626, 0.0908, -0.4115, 0.0114, 0.0004, 0.0097, 342, 771640, 0.0000, 0.0000, -0.0000, 0.0000, 1.3676, 0.0746, -0.7526, 0.0000, 0.0000, 0.0000
3.8000, 0.0000, 0.0000, 0.0000, 0.0000, 0.0000, 0.0000, 0.0623, 0.0910, -0.4106, 0.0114, 0.0001, 0.0101, 343, 771640, 0.0000, 0.0000, -0.0000, 0.0000, 1.3675, 0.0745, -0.7526, 0.0000, 0.0000, 0.0000
3.8200, 0.0000, 0.0000, 0.0000, 0.0000, 0.0000, 0.0000, 0.0623, 0.0913, -0.4098, 0.0112, 0.0004, 0.0096, 344, 771640, 0.0000, 0.0000, -0.0000, 0.0000, 1.3675, 0.0745, -0.7526, 0.0000, 0.0000, 0.0000
3.8400, 0.0000, 0.0000, 0.0000, 0.0000, 0.0000, 0.0000, 0.0621, 0.0916, -0.4088, 0.0112, 0.0000, 0.0086, 345, 771640, 0.0000, 0.0000, -0.0000, 0.0000, 1.3676, 0.0745, -0.7526, 0.0000, 0.0000, 0.0000
3.8600, 0.0000, 0.0000, 0.0000, 0.0000, 0.0000, 0.0000, 0.0620, 0.0919, -0.4080, 0.0113, -0.0001, 0.0080, 346, 771640, 0.0000, 0.0000, -0.0000, 0.0000, 1.3676, 0.0746, -0.7526, 0.0000, 0.0000, 0.0000
3.8800, 0.0000, 0.0000, 0.0000, 0.0000, 0.0000, 0.0000, 0.0618, 0.0920, -0.4072, 0.0109, 0.0001, 0.0077, 347, 771640, 0.0000, 0.0000, -0.0000, 0.0000, 1.3675, 0.0745, -0.7526, 0.0000, 0.0000, 0.0000
3.9000, 0.0000, 0.0000, 0.0000, 0.0000, 0.0000, 0.0000, 0.0616, 0.0921, -0.4063, 0.0107, 0.0005, 0.0082, 348, 771640, 0.0000, 0.0000, -0.0000, 0.0000, 1.3673, 0.0743, -0.7525, 0.0000, 0.0000, 0.0000
3.9190, 0.0000, 0.0000, 0.0000, 0.0000, 0.0000, 0.0000, 0.0615, 0.0924, -0.4055, 0.0108, 0.0011, 0.0077, 349, 771640, 0.0000, 0.0000, -0.0000, 0.0000, 1.3673, 0.0744, -0.7524, 0.0000, 0.0000, 0.0000
3.9400, 0.0000, 0.0000, 0.0000, 0.0000, 0.0000, 0.0000, 0.0614, 0.0925, -0.4048, 0.0105, 0.0012, 0.0078, 350, 771640, 0.0000, 0.0000, -0.0000, 0.0000, 1.3675, 0.0745, -0.7526, 0.0000, 0.0000, 0.0000
3.9600, 0.0000, 0.0000, 0.0000, 0.0000, 0.0000, 0.0000, 0.0612, 0.0926, -0.4041, 0.0108, 0.0010, 0.0071, 351, 771640, 0.0000, 0.0000, -0.0000, 0.0000, 1.3674, 0.0744, -0.7525, 0.0000, 0.0000, 0.0000
3.9800, 0.0000, 0.0000, 0.0000, 0.0000, 0.0000, 0.0000, 0.0611, 0.0927, -0.4034, 0.0107, 0.0007, 0.0072, 352, 771640, 0.0000, 0.0000, -0.0000, 0.0000, 1.3675, 0.0745, -0.7526, 0.0000, 0.0000, 0.0000
4.0000, 0.0000, 0.0000, 0.0000, 0.0000, 0.0000, 0.0000, 0.0609, 0.0929, -0.4027, 0.0107, 0.0008, 0.0076, 353, 771640, 0.0000, 0.0000, -0.0000, 0.0000, 1.3678, 0.0747, -0.7527, 0.0000, 0.0000, 0.0000
4.0190, 0.0000, 0.0000, 0.0000, 0.0000, 0.0000, 0.0000, 0.0607, 0.0931, -0.4022, 0.0106, 0.0008, 0.0077, 354, 771640, 0.0000, 0.0000, -0.0000, 0.0000, 1.3675, 0.0746, -0.7527, 0.0000, 0.0000, 0.0000
4.0400, 0.0000, 0.0000, 0.0000, 0.0000, 0.0000, 0.0000, 0.0606, 0.0930, -0.4016, 0.0105, 0.0008, 0.0071, 355, 771640, 0.0000, 0.0000, -0.0000, 0.0000, 1.3676, 0.0744, -0.7527, 0.0000, 0.0000, 0.0000
4.0600, 0.0000, 0.0000, 0.0000, 0.0000, 0.0000, 0.0000, 0.0605, 0.0931, -0.4010, 0.0110, 0.0005, 0.0070, 356, 771640, 0.0000, 0.0000, -0.0000, 0.0000, 1.3673, 0.0743, -0.7525, 0.0000, 0.0000, 0.0000
4.0800, 0.0000, 0.0000, 0.0000, 0.0000, 0.0000, 0.0000, 0.0604, 0.0933, -0.4005, 0.0103, 0.0007, 0.0071, 357, 771640, 0.0000, 0.0000, -0.0000, 0.0000, 1.3676, 0.0745, -0.7527, 0.0000, 0.0000, 0.0000
4.0990, 0.0000, 0.0000, 0.0000, 0.0000, 0.0000, 0.0000, 0.0603, 0.0932, -0.4000, 0.0106, 0.0001, 0.0072, 358, 771640, 0.0000, 0.0000, -0.0000, 0.0000, 1.3675, 0.0745, -0.7526, 0.0000, 0.0000, 0.0000
4.1200, 0.0000, 0.0000, 0.0000, 0.0000, 0.0000, 0.0000, 0.0602, 0.0932, -0.3996, 0.0106, -0.0000, 0.0069, 359, 771640, 0.0000, 0.0000, -0.0000, 0.0000, 1.3674, 0.0744, -0.7526, 0.0000, 0.0000, 0.0000
4.1400, 0.0000, 0.0000, 0.0000, 0.0000, 0.0000, 0.0000, 0.0601, 0.0932, -0.3991, 0.0105, 0.0003, 0.0074, 360, 771640, 0.0000, 0.0000, -0.0000, 0.0000, 1.3675, 0.0745, -0.7526, 0.0000, 0.0000, 0.0000
4.1600, 0.0000, 0.0000, 0.0000, 0.0000, 0.0000, 0.0000, 0.0598, 0.0933, -0.3988, 0.0106, 0.0004, 0.0074, 361, 771640, 0.0000, 0.0000, -0.0000, 0.0000, 1.3674, 0.0745, -0.7525, 0.0000, 0.0000, 0.0000
4.1790, 0.0000, 0.0000, 0.0000, 0.0000, 0.0000, 0.0000, 0.0597, 0.0932, -0.3984, 0.0104, 0.0009, 0.0077, 362, 771640, 0.0000, 0.0000, -0.0000, 0.0000, 1.3673, 0.0744, -0.7525, 0.0000, 0.0000, 0.0000
4.2000, 0.0000, 0.0000, 0.0000, 0.0000, 0.0000, 0.0000, 0.0596, 0.0932, -0.3979, 0.0104, 0.0008, 0.0074, 363, 771640, 0.0000, 0.0000, -0.0000, 0.0000, 1.3673, 0.0745, -0.7525, 0.0000, 0.0000, 0.0000
4.2190, 0.0000, 0.0000, 0.0000, 0.0000, 0.0000, 0.0000, 0.0596, 0.0934, -0.3974, 0.0104, 0.0009, 0.0081, 364, 771640, 0.0000, 0.0000, -0.0000, 0.0000, 1.3675, 0.0746, -0.7526, 0.0000, 0.0000, 0.0000
4.2390, 0.0000, 0.0000, 0.0000, 0.0000, 0.0000, 0.0000, 0.0594, 0.0932, -0.3972, 0.0105, 0.0006, 0.0076, 365, 771640, 0.0000, 0.0000, -0.0000, 0.0000, 1.3674, 0.0745, -0.7525, 0.0000, 0.0000, 0.0000
4.2590, 0.0000, 0.0000, 0.0000, 0.0000, 0.0000, 0.0000, 0.0593, 0.0932, -0.3966, 0.0104, -0.0005, 0.0076, 366, 771640, 0.0000, 0.0000, -0.0000, 0.0000, 1.3673, 0.0744, -0.7525, 0.0000, 0.0000, 0.0000
4.2800, 0.0000, 0.0000, 0.0000, 0.0000, 0.0000, 0.0000, 0.0592, 0.0931, -0.3963, 0.0106, -0.0009, 0.0073, 367, 771640, 0.0000, 0.0000, -0.0000, 0.0000, 1.3673, 0.0745, -0.7525, 0.0000, 0.0000, 0.0000
4.3000, 0.0000, 0.0000, 0.0000, 0.0000, 0.0000, 0.0000, 0.0592, 0.0932, -0.3956, 0.0105, -0.0010, 0.0075, 368, 771640, 0.0000, 0.0000, -0.0000, 0.0000, 1.3675, 0.0746, -0.7526, 0.0000, 0.0000, 0.0000
4.3200, 0.0000, 0.0000, 0.0000, 0.0000, 0.0000, 0.0000, 0.0591, 0.0931, -0.3952, 0.0104, -0.0011, 0.0075, 369, 771640, 0.0000, 0.0000, -0.0000, 0.0000, 1.3674, 0.0745, -0.7525, 0.0000, 0.0000, 0.0000
4.3390, 0.0000, 0.0000, 0.0000, 0.0000, 0.0000, 0.0000, 0.0590, 0.0930, -0.3945, 0.0107, -0.0011, 0.0070, 370, 771640, 0.0000, 0.0000, -0.0000, 0.0000, 1.3673, 0.0744, -0.7525, 0.0000, 0.0000, 0.0000
4.3600, 0.0000, 0.0000, 0.0000, 0.0000, 0.0000, 0.0000, 0.0591, 0.0930, -0.3938, 0.0106, -0.0020, 0.0075, 371, 771640, 0.0000, 0.0000, -0.0000, 0.0000, 1.3673, 0.0745, -0.7525, 0.0000, 0.0000, 0.0000
4.3800, 0.0000, 0.0000, 0.0000, 0.0000, 0.0000, 0.0000, 0.0591, 0.0929, -0.3932, 0.0108, -0.0025, 0.0072, 372, 771640, 0.0000, 0.0000, -0.0000, 0.0000, 1.3674, 0.0745, -0.7525, 0.0000, 0.0000, 0.0000
4.4000, 0.0000, 0.0000, 0.0000, 0.0000, 0.0000, 0.0000, 0.0592, 0.0928, -0.3924, 0.0109, -0.0028, 0.0084, 373, 771640, 0.0000, 0.0000, -0.0000, 0.0000, 1.3675, 0.0745, -0.7526, 0.0000, 0.0000, 0.0000
4.4190, 0.0000, 0.0000, 0.0000, 0.0000, 0.0000, 0.0000, 0.0592, 0.0927, -0.3918, 0.0108, -0.0023, 0.0088, 374, 771640, 0.0000, 0.0000, -0.0000, 0.0000, 1.3673, 0.0744, -0.7525, 0.0000, 0.0000, 0.0000
4.4400, 0.0000, 0.0000, 0.0000, 0.0000, 0.0000, 0.0000, 0.0593, 0.0927, -0.3910, 0.0110, -0.0030, 0.0095, 375, 771640, 0.0000, 0.0000, -0.0000, 0.0000, 1.3674, 0.0746, -0.7526, 0.0000, 0.0000, 0.0000
4.4600, 0.0000, 0.0000, 0.0000, 0.0000, 0.0000, 0.0000, 0.0595, 0.0927, -0.3904, 0.0108, -0.0035, 0.0097, 376, 771640, 0.0000, 0.0000, -0.0000, 0.0000, 1.3673, 0.0745, -0.7525, 0.0000, 0.0000, 0.0000
4.4800, 0.0000, 0.0000, 0.0000, 0.0000, 0.0000, 0.0000, 0.0597, 0.0925, -0.3898, 0.0110, -0.0040, 0.0106, 377, 771640, 0.0000, 0.0000, -0.0000, 0.0000, 1.3673, 0.0743, -0.7525, 0.0000, 0.0000, 0.0000
4.5000, 0.0000, 0.0000, 0.0000, 0.0000, 0.0000, 0.0000, 0.0599, 0.0927, -0.3891, 0.0110, -0.0044, 0.0108, 378, 771640, 0.0000, 0.0000, -0.0000, 0.0000, 1.3674, 0.0745, -0.7526, 0.0000, 0.0000, 0.0000
4.5200, 0.0000, 0.0000, 0.0000, 0.0000, 0.0000, 0.0000, 0.0602, 0.0926, -0.3886, 0.0110, -0.0044, 0.0109, 379, 771640, 0.0000, 0.0000, -0.0000, 0.0000, 1.3673, 0.0745, -0.7525, 0.0000, 0.0000, 0.0000
4.5400, 0.0000, 0.0000, 0.0000, 0.0000, 0.0000, 0.0000, 0.0604, 0.0925, -0.3881, 0.0108, -0.0045, 0.0115, 380, 771640, 0.0000, 0.0000, -0.0000, 0.0000, 1.3673, 0.0745, -0.7525, 0.0000, 0.0000, 0.0000
4.5600, 0.0000, 0.0000, 0.0000, 0.0000, 0.0000, 0.0000, 0.0608, 0.0924, -0.3875, 0.0110, -0.0040, 0.0110, 381, 771640, 0.0000, 0.0000, -0.0000, 0.0000, 1.3673, 0.0744, -0.7525, 0.0000, 0.0000, 0.0000
4.5790, 0.0000, 0.0000, 0.0000, 0.0000, 0.0000, 0.0000, 0.0610, 0.0924, -0.3870, 0.0110, -0.0033, 0.0111, 382, 771640, 0.0000, 0.0000, -0.0000, 0.0000, 1.3675, 0.0745, -0.7527, 0.0000, 0.0000, 0.0000
4.6000, 0.0000, 0.0000, 0.0000, 0.0000, 0.0000, 0.0000, 0.0612, 0.0924, -0.3863, 0.0111, -0.0023, 0.0114, 383, 771640, 0.0000, 0.0000, -0.0000, 0.0000, 1.3675, 0.0746, -0.7526, 0.0000, 0.0000, 0.0000
4.6200, 0.0000, 0.0000, 0.0000, 0.0000, 0.0000, 0.0000, 0.0615, 0.0923, -0.3859, 0.0112, -0.0017, 0.0119, 384, 771640, 0.0000, 0.0000, -0.0000, 0.0000, 1.3673, 0.0745, -0.7525, 0.0000, 0.0000, 0.0000
4.6400, 0.0000, 0.0000, 0.0000, 0.0000, 0.0000, 0.0000, 0.0619, 0.0924, -0.3854, 0.0112, -0.0014, 0.0122, 385, 771640, 0.0000, 0.0000, -0.0000, 0.0000, 1.3673, 0.0745, -0.7525, 0.0000, 0.0000, 0.0000
4.6600, 0.0000, 0.0000, 0.0000, 0.0000, 0.0000, 0.0000, 0.0622, 0.0924, -0.3850, 0.0113, -0.0010, 0.0124, 386, 771640, 0.0000, 0.0000, -0.0000, 0.0000, 1.3675, 0.0746, -0.7526, 0.0000, 0.0000, 0.0000
4.6800, 0.0000, 0.0000, 0.0000, 0.0000, 0.0000, 0.0000, 0.0626, 0.0925, -0.3847, 0.0117, -0.0010, 0.0124, 387, 771640, 0.0000, 0.0000, -0.0000, 0.0000, 1.3674, 0.0745, -0.7525, 0.0000, 0.0000, 0.0000
4.7000, 0.0000, 0.0000, 0.0000, 0.0000, 0.0000, 0.0000, 0.0629, 0.0925, -0.3844, 0.0116, -0.0011, 0.0136, 388, 771640, 0.0000, 0.0000, -0.0000, 0.0000, 1.3675, 0.0745, -0.7526, 0.0000, 0.0000, 0.0000
4.7200, 0.0000, 0.0000, 0.0000, 0.0000, 0.0000, 0.0000, 0.0634, 0.0926, -0.3841, 0.0119, -0.0011, 0.0133, 389, 771640, 0.0000, 0.0000, -0.0000, 0.0000, 1.3674, 0.0744, -0.7525, 0.0000, 0.0000, 0.0000
4.7400, 0.0000, 0.0000, 0.0000, 0.0000, 0.0000, 0.0000, 0.0638, 0.0929, -0.3837, 0.0120, -0.0013, 0.0137, 390, 771640, 0.0000, 0.0000, -0.0000, 0.0000, 1.3675, 0.0746, -0.7527, 0.0000, 0.0000, 0.0000
4.7600, 0.0000, 0.0000, 0.0000, 0.0000, 0.0000, 0.0000, 0.0643, 0.0928, -0.3834, 0.0121, -0.0011, 0.0130, 391, 771640, 0.0000, 0.0000, -0.0000, 0.0000, 1.3674, 0.0745, -0.7525, 0.0000, 0.0000, 0.0000
4.7800, 0.0000, 0.0000, 0.0000, 0.0000, 0.0000, 0.0000, 0.0647, 0.0929, -0.3829, 0.0121, -0.0008, 0.0128, 392, 771640, 0.0000, 0.0000, -0.0000, 0.0000, 1.3674, 0.0744, -0.7526, 0.0000, 0.0000, 0.0000
4.8000, 0.0000, 0.0000, 0.0000, 0.0000, 0.0000, 0.0000, 0.0651, 0.0930, -0.3826, 0.0123, 0.0001, 0.0127, 393, 771640, 0.0000, 0.0000, -0.0000, 0.0000, 1.3675, 0.0746, -0.7526, 0.0000, 0.0000, 0.0000
4.8200, 0.0000, 0.0000, 0.0000, 0.0000, 0.0000, 0.0000, 0.0655, 0.0932, -0.3820, 0.0125, 0.0006, 0.0125, 394, 771640, 0.0000, 0.0000, -0.0000, 0.0000, 1.3675, 0.0746, -0.7526, 0.0000, 0.0000, 0.0000
4.8400, 0.0000, 0.0000, 0.0000, 0.0000, 0.0000, 0.0000, 0.0659, 0.0932, -0.3815, 0.0124, 0.0010, 0.0127, 395, 771640, 0.0000, 0.0000, -0.0000, 0.0000, 1.3676, 0.0745, -0.7527, 0.0000, 0.0000, 0.0000
4.8600, 0.0000, 0.0000, 0.0000, 0.0000, 0.0000, 0.0000, 0.0664, 0.0934, -0.3808, 0.0129, 0.0016, 0.0121, 396, 771640, 0.0000, 0.0000, -0.0000, 0.0000, 1.3678, 0.0746, -0.7527, 0.0000, 0.0000, 0.0000
4.8800, 0.0000, 0.0000, 0.0000, 0.0000, 0.0000, 0.0000, 0.0669, 0.0937, -0.3800, 0.0129, 0.0020, 0.0122, 397, 771640, 0.0000, 0.0000, -0.0000, 0.0000, 1.3675, 0.0745, -0.7527, 0.0000, 0.0000, 0.0000
4.9000, 0.0000, 0.0000, 0.0000, 0.0000, 0.0000, 0.0000, 0.0674, 0.0938, -0.3792, 0.0130, 0.0024, 0.0119, 398, 771640, 0.0000, 0.0000, -0.0000, 0.0000, 1.3675, 0.0746, -0.7526, 0.0000, 0.0000, 0.0000
4.9190, 0.0000, 0.0000, 0.0000, 0.0000, 0.0000, 0.0000, 0.0679, 0.0940, -0.3785, 0.0131, 0.0030, 0.0122, 399, 771640, 0.0000, 0.0000, -0.0000, 0.0000, 1.3675, 0.0745, -0.7527, 0.0000, 0.0000, 0.0000
4.9390, 0.0000, 0.0000, 0.0000, 0.0000, 0.0000, 0.0000, 0.0683, 0.0941, -0.3777, 0.0129, 0.0033, 0.0119, 400, 771640, 0.0000, 0.0000, -0.0000, 0.0000, 1.3675, 0.0745, -0.7526, 0.0000, 0.0000, 0.0000
4.9590, 0.0000, 0.0000, 0.0000, 0.0000, 0.0000, 0.0000, 0.0687, 0.0944, -0.3767, 0.0129, 0.0040, 0.0121, 401, 771640, 0.0000, 0.0000, -0.0000, 0.0000, 1.3676, 0.0746, -0.7527, 0.0000, 0.0000, 0.0000
4.9790, 0.0000, 0.0000, 0.0000, 0.0000, 0.0000, 0.0000, 0.0691, 0.0945, -0.3758, 0.0129, 0.0052, 0.0118, 402, 771640, 0.0000, 0.0000, -0.0000, 0.0000, 1.3677, 0.0746, -0.7528, 0.0000, 0.0000, 0.0000
4.9990, 0.0000, 0.0000, 0.0000, 0.0000, 0.0000, 0.0000, 0.0694, 0.0946, -0.3748, 0.0129, 0.0065, 0.0109, 403, 771640, 0.0000, 0.0000, -0.0000, 0.0000, 1.3676, 0.0745, -0.7528, 0.0000, 0.0000, 0.0000
5.0190, 0.0000, 0.0000, 0.0000, 0.0000, 0.0000, 0.0000, 0.0698, 0.0950, -0.3736, 0.0130, 0.0077, 0.0100, 404, 771640, 0.0000, 0.0000, -0.0000, 0.0000, 1.3674, 0.0744, -0.7527, 0.0000, 0.0000, 0.0000
5.0390, 0.0000, 0.0000, 0.0000, 0.0000, 0.0000, 0.0000, 0.0700, 0.0951, -0.3726, 0.0131, 0.0092, 0.0100, 405, 771640, 0.0000, 0.0000, -0.0006, 0.0000, 1.3676, 0.0745, -0.7527, 0.0000, 0.0000, -0.0038
5.0590, 0.0000, 0.0000, 0.0000, 0.0000, 0.0000, 0.0000, 0.0703, 0.0953, -0.3715, 0.0131, 0.0101, 0.0096, 406, 771640, 0.0000, 0.0000, -0.0017, 0.0000, 1.3675, 0.0744, -0.7527, 0.0000, 0.0000, -0.0078
5.0790, 0.0000, 0.0000, 0.0000, 0.0000, 0.0000, 0.0000, 0.0706, 0.0955, -0.3703, 0.0132, 0.0108, 0.0101, 407, 771640, 0.0000, 0.0000, -0.0032, 0.0000, 1.3678, 0.0746, -0.7528, 0.0000, 0.0000, -0.0118
5.0990, 0.0000, 0.0000, 0.0000, 0.0000, 0.0000, 0.0000, 0.0709, 0.0958, -0.3691, 0.0135, 0.0108, 0.0098, 408, 771640, 0.0000, 0.0000, -0.0051, 0.0000, 1.3676, 0.0745, -0.7527, 0.0000, 0.0000, -0.0158
5.1190, 0.0000, 0.0000, 0.0000, 0.0000, 0.0000, 0.0000, 0.0711, 0.0960, -0.3681, 0.0136, 0.0105, 0.0097, 409, 771640, 0.0000, 0.0000, -0.0073, 0.0000, 1.3679, 0.0747, -0.7528, 0.0000, 0.0000, -0.0198
5.1390, 0.0000, 0.0000, 0.0000, 0.0000, 0.0000, 0.0000, 0.0714, 0.0959, -0.3671, 0.0137, 0.0100, 0.0092, 410, 771640, 0.0000, 0.0000, -0.0098, 0.0000, 1.3679, 0.0746, -0.7528, 0.0000, 0.0000, -0.0238
5.1590, 0.0000, 0.0000, 0.0000, 0.0000, 0.0000, 0.0000, 0.0715, 0.0963, -0.3662, 0.0140, 0.0099, 0.0090, 411, 771640, 0.0000, 0.0000, -0.0125, 0.0000, 1.3677, 0.0745, -0.7528, 0.0000, 0.0000, -0.0278
5.1790, 0.0000, 0.0000, 0.0000, 0.0000, 0.0000, 0.0000, 0.0717, 0.0965, -0.3652, 0.0139, 0.0098, 0.0087, 412, 771640, 0.0000, 0.0000, -0.0154, 0.0000, 1.3674, 0.0745, -0.7526, 0.0000, 0.0000, -0.0318
5.2000, 0.0000, 0.0000, 0.0000, 0.0000, 0.0000, 0.0000, 0.0718, 0.0967, -0.3643, 0.0141, 0.0101, 0.0094, 413, 771640, 0.0000, 0.0000, -0.0184, 0.0000, 1.3678, 0.0746, -0.7528, 0.0000, 0.0000, -0.0358
5.2200, 0.0000, 0.0000, 0.0000, 0.0000, 0.0000, 0.0000, 0.0719, 0.0969, -0.3634, 0.0140, 0.0109, 0.0096, 414, 771640, 0.0000, 0.0000, -0.0217, 0.0000, 1.3675, 0.0744, -0.7527, 0.0000, 0.0000, -0.0400
5.2390, 0.0000, 0.0000, 0.0000, 0.0000, 0.0000, 0.0000, 0.0719, 0.0971, -0.3625, 0.0141, 0.0113, 0.0106, 415, 771640, 0.0000, 0.0000, -0.0250, 0.0000, 1.3675, 0.0745, -0.7525, 0.0000, 0.0000, -0.0440
5.2590, 0.0000, 0.0000, 0.0000, 0.0000, 0.0000, 0.0000, 0.0719, 0.0973, -0.3618, 0.0143, 0.0107, 0.0100, 416, 771640, 0.0000, 0.0000, -0.0284, 0.0000, 1.3676, 0.0746, -0.7527, 0.0000, 0.0000, -0.0478
5.2790, 0.0000, 0.0000, 0.0000, 0.0000, 0.0000, 0.0000, 0.0719, 0.0974, -0.3611, 0.0146, 0.0096, 0.0097, 417, 771640, 0.0000, 0.0000, -0.0319, 0.0000, 1.3676, 0.0745, -0.7527, 0.0000, 0.0000, -0.0518
5.3000, 0.0000, 0.0000, 0.0000, 0.0000, 0.0000, 0.0000, 0.0719, 0.0976, -0.3605, 0.0147, 0.0090, 0.0088, 418, 771640, 0.0000, 0.0000, -0.0355, 0.0000, 1.3676, 0.0744, -0.7527, 0.0000, 0.0000, -0.0558
5.3200, 0.0000, 0.0000, 0.0000, 0.0000, 0.0000, 0.0000, 0.0719, 0.0978, -0.3598, 0.0150, 0.0081, 0.0082, 419, 771640, 0.0000, 0.0000, -0.0392, 0.0000, 1.3678, 0.0747, -0.7527, 0.0000, 0.0000, -0.0600
5.3400, 0.0000, 0.0000, 0.0000, 0.0000, 0.0000, 0.0000, 0.0719, 0.0980, -0.3592, 0.0148, 0.0079, 0.0085, 420, 771640, 0.0000, 0.0000, -0.0429, 0.0000, 1.3676, 0.0745, -0.7527, 0.0000, 0.0000, -0.0640
5.3600, 0.0000, 0.0000, 0.0000, 0.0000, 0.0000, 0.0000, 0.0718, 0.0981, -0.3587, 0.0152, 0.0076, 0.0082, 421, 771640, 0.0000, 0.0000, -0.0467, 0.0000, 1.3676, 0.0745, -0.7527, 0.0000, 0.0000, -0.0680
5.3800, 0.0000, 0.0000, 0.0000, 0.0000, 0.0000, 0.0000, 0.0716, 0.0983, -0.3582, 0.0153, 0.0073, 0.0085, 422, 771640, 0.0000, 0.0000, -0.0505, 0.0000, 1.3676, 0.0745, -0.7527, 0.0000, 0.0000, -0.0720
5.4000, 0.0000, 0.0000, 0.0000, 0.0000, 0.0000, 0.0000, 0.0714, 0.0986, -0.3575, 0.0154, 0.0073, 0.0087, 423, 771640, 0.0000, 0.0000, -0.0543, 0.0000, 1.3677, 0.0745, -0.7527, 0.0000, 0.0000, -0.0760
5.4200, 0.0000, 0.0000, 0.0000, 0.0000, 0.0000, 0.0000, 0.0712, 0.0987, -0.3571, 0.0157, 0.0071, 0.0089, 424, 771640, 0.0000, 0.0000, -0.0582, 0.0000, 1.3677, 0.0745, -0.7527, 0.0000, 0.0000, -0.0800
5.4390, 0.0000, 0.0000, 0.0000, 0.0000, 0.0000, 0.0000, 0.0711, 0.0988, -0.3566, 0.0152, 0.0078, 0.0089, 425, 771640, 0.0000, 0.0000, -0.0620, 0.0000, 1.3677, 0.0745, -0.7527, 0.0000, 0.0000, -0.0840
5.4600, 0.0000, 0.0000, 0.0000, 0.0000, 0.0000, 0.0000, 0.0709, 0.0990, -0.3562, 0.0158, 0.0080, 0.0088, 426, 771640, 0.0000, 0.0000, -0.0659, 0.0000, 1.3678, 0.0746, -0.7527, 0.0000, 0.0000, -0.0878
5.4800, 0.0000, 0.0000, 0.0000, 0.0000, 0.0000, 0.0000, 0.0707, 0.0992, -0.3559, 0.0159, 0.0080, 0.0089, 427, 771640, 0.0000, 0.0000, -0.0698, 0.0000, 1.3680, 0.0748, -0.7528, 0.0000, 0.0000, -0.0920
5.5000, 0.0000, 0.0000, 0.0000, 0.0000, 0.0000, 0.0000, 0.0705, 0.0993, -0.3556, 0.0161, 0.0076, 0.0089, 428, 771640, 0.0000, 0.0000, -0.0737, 0.0000, 1.3677, 0.0745, -0.7527, 0.0000, 0.0000, -0.0960
5.5200, 0.0000, 0.0000, 0.0000, 0.0000, 0.0000, 0.0000, 0.0703, 0.0993, -0.3554, 0.0163, 0.0067, 0.0083, 429, 771640, 0.0000, 0.0000, -0.0777, 0.0000, 1.3676, 0.0744, -0.7526, 0.0000, 0.0000, -0.1000
5.5400, 0.0000, 0.0000, 0.0000, 0.0000, 0.0000, 0.0000, 0.0701, 0.0995, -0.3550, 0.0163, 0.0064, 0.0082, 430, 771640, 0.0000, 0.0000, -0.0816, 0.0000, 1.3675, 0.0744, -0.7526, 0.0000, 0.0000, -0.1040
5.5600, 0.0000, 0.0000, 0.0000, 0.0000, 0.0000, 0.0000, 0.0698, 0.0997, -0.3548, 0.0166, 0.0062, 0.0078, 431, 771640, 0.0000, 0.0000, -0.0856, 0.0000, 1.3677, 0.0746, -0.7527, 0.0000, 0.0000, -0.1080
5.5800, 0.0000, 0.0000, 0.0000, 0.0000, 0.0000, 0.0000, 0.0697, 0.0997, -0.3546, 0.0163, 0.0060, 0.0080, 432, 771640, 0.0000, 0.0000, -0.0895, 0.0000, 1.3675, 0.0744, -0.7526, 0.0000, 0.0000, -0.1120
5.6000, 0.0000, 0.0000, 0.0000, 0.0000, 0.0000, 0.0000, 0.0694, 0.0997, -0.3541, 0.0163, 0.0053, 0.0083, 433, 771640, 0.0000, 0.0000, -0.0935, 0.0000, 1.3675, 0.0744, -0.7526, 0.0000, 0.0000, -0.1160
5.6200, 0.0000, 0.0000, 0.0000, 0.0000, 0.0000, 0.0000, 0.0691, 0.0999, -0.3540, 0.0164, 0.0047, 0.0077, 434, 771640, 0.0000, 0.0000, -0.0975, 0.0000, 1.3675, 0.0745, -0.7526, 0.0000, 0.0000, -0.1200
5.6400, 0.0000, 0.0000, 0.0000, 0.0000, 0.0000, 0.0000, 0.0689, 0.0999, -0.3536, 0.0162, 0.0050, 0.0082, 435, 771640, 0.0000, 0.0000, -0.1015, 0.0000, 1.3675, 0.0745, -0.7526, 0.0000, 0.0000, -0.1240
5.6600, 0.0000, 0.0000, 0.0000, 0.0000, 0.0000, 0.0000, 0.0686, 0.0999, -0.3535, 0.0165, 0.0047, 0.0079, 436, 771640, 0.0000, 0.0000, -0.1054, 0.0000, 1.3678, 0.0746, -0.7527, 0.0000, 0.0000, -0.1280
5.6790, 0.0000, 0.0000, 0.0000, 0.0000, 0.0000, 0.0000, 0.0683, 0.1000, -0.3532, 0.0167, 0.0048, 0.0077, 437, 771640, 0.0000, 0.0000, -0.1094, 0.0000, 1.3675, 0.0745, -0.7527, 0.0000, 0.0000, -0.1320
5.7000, 0.0000, 0.0000, 0.0000, 0.0000, 0.0000, 0.0000, 0.0680, 0.1001, -0.3531, 0.0168, 0.0047, 0.0077, 438, 771640, 0.0000, 0.0000, -0.1134, 0.0000, 1.3678, 0.0747, -0.7527, 0.0000, 0.0000, -0.1358
5.7200, 0.0000, 0.0000, 0.0000, 0.0000, 0.0000, 0.0000, 0.0676, 0.1000, -0.3531, 0.0168, 0.0051, 0.0070, 439, 771640, 0.0000, 0.0000, -0.1174, 0.0000, 1.3677, 0.0745, -0.7527, 0.0000, 0.0000, -0.1400
5.7400, 0.0000, 0.0000, 0.0000, 0.0000, 0.0000, 0.0000, 0.0673, 0.1001, -0.3530, 0.0170, 0.0046, 0.0084, 440, 771640, 0.0000, 0.0000, -0.1214, 0.0000, 1.3675, 0.0744, -0.7526, 0.0000, 0.0000, -0.1440
5.7600, 0.0000, 0.0000, 0.0000, 0.0000, 0.0000, 0.0000, 0.0671, 0.1001, -0.3531, 0.0170, 0.0038, 0.0079, 441, 771640, 0.0000, 0.0000, -0.1254, 0.0000, 1.3675, 0.0744, -0.7526, 0.0000, 0.0000, -0.1480
5.7800, 0.0000, 0.0000, 0.0000, 0.0000, 0.0000, 0.0000, 0.0669, 0.1001, -0.3532, 0.0172, 0.0025, 0.0083, 442, 771640, 0.0000, 0.0000, -0.1294, 0.0000, 1.3677, 0.0746, -0.7527, 0.0000, 0.0000, -0.1520
5.8000, 0.0000, 0.0000, 0.0000, 0.0000, 0.0000, 0.0000, 0.0666, 0.1000, -0.3535, 0.0172, 0.0018, 0.0077, 443, 771640, 0.0000, 0.0000, -0.1334, 0.0000, 1.3675, 0.0745, -0.7527, 0.0000, 0.0000, -0.1560
5.8200, 0.0000, 0.0000, 0.0000, 0.0000, 0.0000, 0.0000, 0.0663, 0.0999, -0.3536, 0.0175, 0.0016, 0.0076, 444, 771640, 0.0000, 0.0000, -0.1374, 0.0000, 1.3675, 0.0745, -0.7527, 0.0000, 0.0000, -0.1600
5.8400, 0.0000, 0.0000, 0.0000, 0.0000, 0.0000, 0.0000, 0.0661, 0.1000, -0.3536, 0.0175, 0.0018, 0.0081, 445, 771640, 0.0000, 0.0000, -0.1413, 0.0000, 1.3678, 0.0747, -0.7527, 0.0000, 0.0000, -0.1640
5.8600, 0.0000, 0.0000, 0.0000, 0.0000, 0.0000, 0.0000, 0.0659, 0.0999, -0.3539, 0.0174, 0.0023, 0.0080, 446, 771640, 0.0000, 0.0000, -0.1453, 0.0000, 1.3678, 0.0747, -0.7527, 0.0000, 0.0000, -0.1680
5.8800, 0.0000, 0.0000, 0.0000, 0.0000, 0.0000, 0.0000, 0.0657, 0.0998, -0.3540, 0.0174, 0.0017, 0.0077, 447, 771640, 0.0000, 0.0000, -0.1493, 0.0000, 1.3674, 0.0745, -0.7527, 0.0000, 0.0000, -0.1720
5.8990, 0.0000, 0.0000, 0.0000, 0.0000, 0.0000, 0.0000, 0.0655, 0.0997, -0.3541, 0.0176, 0.0008, 0.0079, 448, 771640, 0.0000, 0.0000, -0.1533, 0.0000, 1.3678, 0.0746, -0.7527, 0.0000, 0.0000, -0.1760
5.9190, 0.0000, 0.0000, 0.0000, 0.0000, 0.0000, 0.0000, 0.0654, 0.0996, -0.3543, 0.0177, -0.0001, 0.0080, 449, 771640, 0.0000, 0.0000, -0.1573, 0.0000, 1.3675, 0.0745, -0.7527, 0.0000, 0.0000, -0.1798
5.9390, 0.0000, 0.0000, 0.0000, 0.0000, 0.0000, 0.0000, 0.0653, 0.0996, -0.3545, 0.0177, -0.0005, 0.0087, 450, 771640, 0.0000, 0.0000, -0.1613, 0.0000, 1.3675, 0.0745, -0.7527, 0.0000, 0.0000, -0.1838
5.9590, 0.0000, 0.0000, 0.0000, 0.0000, 0.0000, 0.0000, 0.0652, 0.0995, -0.3547, 0.0177, -0.0006, 0.0093, 451, 771640, 0.0000, 0.0000, -0.1653, 0.0000, 1.3674, 0.0744, -0.7526, 0.0000, 0.0000, -0.1878
5.9790, 0.0000, 0.0000, 0.0000, 0.0000, 0.0000, 0.0000, 0.0649, 0.0995, -0.3550, 0.0179, -0.0008, 0.0101, 452, 771640, 0.0000, 0.0000, -0.1692, 0.0000, 1.3674, 0.0744, -0.7526, 0.0000, 0.0000, -0.1918
5.9990, 0.0000, 0.0000, 0.0000, 0.0000, 0.0000, 0.0000, 0.0648, 0.0994, -0.3554, 0.0181, -0.0012, 0.0097, 453, 771640, 0.0000, 0.0000, -0.1732, 0.0000, 1.3678, 0.0746, -0.7527, 0.0000, 0.0000, -0.1958
6.0190, 0.0000, 0.0000, 0.0000, 0.0000, 0.0000, 0.0000, 0.0647, 0.0992, -0.3558, 0.0180, -0.0016, 0.0104, 454, 771640, 0.0000, 0.0000, -0.1772, 0.0000, 1.3675, 0.0744, -0.7526, 0.0000, 0.0000, -0.1998
6.0390, 0.0000, 0.0000, 0.0000, 0.0000, 0.0000, 0.0000, 0.0647, 0.0991, -0.3564, 0.0181, -0.0021, 0.0105, 455, 771640, 0.0000, 0.0000, -0.1812, 0.0000, 1.3675, 0.0744, -0.7526, 0.0000, 0.0000, -0.2038
6.0600, 0.0000, 0.0000, 0.0000, 0.0000, 0.0000, 0.0000, 0.0646, 0.0992, -0.3569, 0.0183, -0.0021, 0.0121, 456, 771640, 0.0000, 0.0000, -0.1852, 0.0000, 1.3677, 0.0746, -0.7527, 0.0000, 0.0000, -0.2078
6.0800, 0.0000, 0.0000, 0.0000, 0.0000, 0.0000, 0.0000, 0.0646, 0.0989, -0.3577, 0.0181, -0.0017, 0.0125, 457, 771640, 0.0000, 0.0000, -0.1892, 0.0000, 1.3678, 0.0747, -0.7528, 0.0000, 0.0000, -0.2120
6.1000, 0.0000, 0.0000, 0.0000, 0.0000, 0.0000, 0.0000, 0.0645, 0.0987, -0.3584, 0.0185, -0.0020, 0.0126, 458, 771640, 0.0000, 0.0000, -0.1932, 0.0000, 1.3676, 0.0744, -0.7526, 0.0000, 0.0000, -0.2160
6.1190, 0.0000, 0.0000, 0.0000, 0.0000, 0.0000, 0.0000, 0.0645, 0.0988, -0.3590, 0.0187, -0.0019, 0.0129, 459, 771640, 0.0000, 0.0000, -0.1972, 0.0000, 1.3676, 0.0745, -0.7526, 0.0000, 0.0000, -0.2200
6.1400, 0.0000, 0.0000, 0.0000, 0.0000, 0.0000, 0.0000, 0.0645, 0.0987, -0.3597, 0.0186, -0.0023, 0.0139, 460, 771640, 0.0000, 0.0000, -0.2012, 0.0000, 1.3677, 0.0746, -0.7527, 0.0000, 0.0000, -0.2238
6.1600, 0.0000, 0.0000, 0.0000, 0.0000, 0.0000, 0.0000, 0.0646, 0.0986, -0.3604, 0.0189, -0.0028, 0.0138, 461, 771640, 0.0000, 0.0000, -0.2052, 0.0000, 1.3676, 0.0745, -0.7526, 0.0000, 0.0000, -0.2280
6.1800, 0.0000, 0.0000, 0.0000, 0.0000, 0.0000, 0.0000, 0.0645, 0.0985, -0.3613, 0.0189, -0.0026, 0.0138, 462, 771640, 0.0000, 0.0000, -0.2093, 0.0000, 1.3675, 0.0745, -0.7527, 0.0000, 0.0000, -0.2320
6.2000, 0.0000, 0.0000, 0.0000, 0.0000, 0.0000, 0.0000, 0.0646, 0.0985, -0.3621, 0.0188, -0.0027, 0.0141, 463, 771640, 0.0000, 0.0000, -0.2133, 0.0000, 1.3675, 0.0745, -0.7527, 0.0000, 0.0000, -0.2360
6.2200, 0.0000, 0.0000, 0.0000, 0.0000, 0.0000, 0.0000, 0.0647, 0.0986, -0.3629, 0.0189, -0.0027, 0.0144, 464, 771640, 0.0000, 0.0000, -0.2173, 0.0000, 1.3674, 0.0744, -0.7525, 0.0000, 0.0000, -0.2400
6.2400, 0.0000, 0.0000, 0.0000, 0.0000, 0.0000, 0.0000, 0.0648, 0.0985, -0.3640, 0.0187, -0.0028, 0.0145, 465, 771640, 0.0000, 0.0000, -0.2213, 0.0000, 1.3674, 0.0744, -0.7525, 0.0000, 0.0000, -0.2440
6.2590, 0.0000, 0.0000, 0.0000, 0.0000, 0.0000, 0.0000, 0.0648, 0.0985, -0.3648, 0.0191, -0.0030, 0.0144, 466, 771640, 0.0000, 0.0000, -0.2253, 0.0000, 1.3675, 0.0744, -0.7526, 0.0000, 0.0000, -0.2480
6.2790, 0.0000, 0.0000, 0.0000, 0.0000, 0.0000, 0.0000, 0.0649, 0.0985, -0.3658, 0.0193, -0.0032, 0.0136, 467, 771640, 0.0000, 0.0000, -0.2293, 0.0000, 1.3675, 0.0745, -0.7526, 0.0000, 0.0000, -0.2518
6.2990, 0.0000, 0.0000, 0.0000, 0.0000, 0.0000, 0.0000, 0.0650, 0.0986, -0.3668, 0.0192, -0.0035, 0.0138, 468, 771640, 0.0000, 0.0000, -0.2332, 0.0000, 1.3675, 0.0745, -0.7527, 0.0000, 0.0000, -0.2558
6.3190, 0.0000, 0.0000, 0.0000, 0.0000, 0.0000, 0.0000, 0.0652, 0.0986, -0.3677, 0.0195, -0.0040, 0.0124, 469, 771640, 0.0000, 0.0000, -0.2372, 0.0000, 1.3674, 0.0743, -0.7525, 0.0000, 0.0000, -0.2598
6.3390, 0.0000, 0.0000, 0.0000, 0.0000, 0.0000, 0.0000, 0.0655, 0.0987, -0.3688, 0.0199, -0.0049, 0.0122, 470, 771640, 0.0000, 0.0000, -0.2412, 0.0000, 1.3675, 0.0744, -0.7526, 0.0000, 0.0000, -0.2638
6.3590, 0.0000, 0.0000, 0.0000, 0.0000, 0.0000, 0.0000, 0.0657, 0.0989, -0.3696, 0.0197, -0.0056, 0.0129, 471, 771640, 0.0000, 0.0000, -0.2452, 0.0000, 1.3676, 0.0746, -0.7527, 0.0000, 0.0000, -0.2678
6.3790, 0.0000, 0.0000, 0.0000, 0.0000, 0.0000, 0.0000, 0.0658, 0.0988, -0.3706, 0.0203, -0.0066, 0.0129, 472, 771640, 0.0000, 0.0000, -0.2492, 0.0000, 1.3674, 0.0745, -0.7525, 0.0000, 0.0000, -0.2718
6.3990, 0.0000, 0.0000, 0.0000, 0.0000, 0.0000, 0.0000, 0.0662, 0.0989, -0.3715, 0.0204, -0.0077, 0.0126, 473, 771640, 0.0000, 0.0000, -0.2532, 0.0000, 1.3673, 0.0743, -0.7525, 0.0000, 0.0000, -0.2758
6.4190, 0.0000, 0.0000, 0.0000, 0.0000, 0.0000, 0.0000, 0.0666, 0.0990, -0.3724, 0.0208, -0.0085, 0.0125, 474, 771640, 0.0000, 0.0000, -0.2572, 0.0000, 1.3675, 0.0745, -0.7526, 0.0000, 0.0000, -0.2798
6.4390, 0.0000, 0.0000, 0.0000, 0.0000, 0.0000, 0.0000, 0.0669, 0.0991, -0.3734, 0.0211, -0.0089, 0.0115, 475, 771640, 0.0000, 0.0000, -0.2612, 0.0000, 1.3676, 0.0746, -0.7527, 0.0000, 0.0000, -0.2838
6.4590, 0.0000, 0.0000, 0.0000, 0.0000, 0.0000, 0.0000, 0.0673, 0.0993, -0.3744, 0.0212, -0.0093, 0.0124, 476, 771640, 0.0000, 0.0000, -0.2652, 0.0000, 1.3678, 0.0747, -0.7527, 0.0000, 0.0000, -0.2878
6.4800, 0.0000, 0.0000, 0.0000, 0.0000, 0.0000, 0.0000, 0.0678, 0.0994, -0.3755, 0.0212, -0.0103, 0.0115, 477, 771640, 0.0000, 0.0000, -0.2692, 0.0000, 1.3676, 0.0745, -0.7527, 0.0000, 0.0000, -0.2918
6.5000, 0.0000, 0.0000, 0.0000, 0.0000, 0.0000, 0.0000, 0.0683, 0.0997, -0.3764, 0.0215, -0.0102, 0.0126, 478, 771640, 0.0000, 0.0000, -0.2732, 0.0000, 1.3677, 0.0747, -0.7527, 0.0000, 0.0000, -0.2960
6.5200, 0.0000, 0.0000, 0.0000, 0.0000, 0.0000, 0.0000, 0.0687, 0.0998, -0.3776, 0.0217, -0.0093, 0.0126, 479, 771640, 0.0000, 0.0000, -0.2772, 0.0000, 1.3678, 0.0747, -0.7527, 0.0000, 0.0000, -0.3000
6.5400, 0.0000, 0.0000, 0.0000, 0.0000, 0.0000, 0.0000, 0.0690, 0.0999, -0.3789, 0.0219, -0.0080, 0.0121, 480, 771640, 0.0000, 0.0000, -0.2812, 0.0000, 1.3675, 0.0744, -0.7527, 0.0000, 0.0000, -0.3040
6.5600, 0.0000, 0.0000, 0.0000, 0.0000, 0.0000, 0.0000, 0.0696, 0.1001, -0.3800, 0.0217, -0.0072, 0.0122, 481, 771640, 0.0000, 0.0000, -0.2852, 0.0000, 1.3675, 0.0745, -0.7526, 0.0000, 0.0000, -0.3080
6.5800, 0.0000, 0.0000, 0.0000, 0.0000, 0.0000, 0.0000, 0.0702, 0.1004, -0.3815, 0.0219, -0.0070, 0.0122, 482, 771640, 0.0000, 0.0000, -0.2893, 0.0000, 1.3678, 0.0747, -0.7528, 0.0000, 0.0000, -0.3120
6.6000, 0.0000, 0.0000, 0.0000, 0.0000, 0.0000, 0.0000, 0.0708, 0.1006, -0.3829, 0.0220, -0.0068, 0.0122, 483, 771640, 0.0000, 0.0000, -0.2933, 0.0000, 1.3675, 0.0745, -0.7527, 0.0000, 0.0000, -0.3160
6.6200, 0.0000, 0.0000, 0.0000, 0.0000, 0.0000, 0.0000, 0.0715, 0.1008, -0.3844, 0.0220, -0.0066, 0.0127, 484, 771640, 0.0000, 0.0000, -0.2973, 0.0000, 1.3678, 0.0746, -0.7528, 0.0000, 0.0000, -0.3200
6.6400, 0.0000, 0.0000, 0.0000, 0.0000, 0.0000, 0.0000, 0.0723, 0.1011, -0.3857, 0.0223, -0.0067, 0.0129, 485, 771640, 0.0000, 0.0000, -0.3013, 0.0000, 1.3675, 0.0745, -0.7527, 0.0000, 0.0000, -0.3240
6.6600, 0.0000, 0.0000, 0.0000, 0.0000, 0.0000, 0.0000, 0.0731, 0.1014, -0.3873, 0.0222, -0.0065, 0.0124, 486, 771640, 0.0000, 0.0000, -0.3053, 0.0000, 1.3679, 0.0747, -0.7528, 0.0000, 0.0000, -0.3280
6.6790, 0.0000, 0.0000, 0.0000, 0.0000, 0.0000, 0.0000, 0.0739, 0.1016, -0.3888, 0.0223, -0.0069, 0.0123, 487, 771640, 0.0000, 0.0000, -0.3093, 0.0000, 1.3676, 0.0745, -0.7527, 0.0000, 0.0000, -0.3320
6.7000, 0.0000, 0.0000, 0.0000, 0.0000, 0.0000, 0.0000, 0.0746, 0.1019, -0.3903, 0.0226, -0.0072, 0.0120, 488, 771640, 0.0000, 0.0000, -0.3133, 0.0000, 1.3676, 0.0745, -0.7527, 0.0000, 0.0000, -0.3358
6.7200, 0.0000, 0.0000, 0.0000, 0.0000, 0.0000, 0.0000, 0.0754, 0.1022, -0.3918, 0.0226, -0.0072, 0.0110, 489, 771640, 0.0000, 0.0000, -0.3173, 0.0000, 1.3676, 0.0746, -0.7527, 0.0000, 0.0000, -0.3400
6.7390, 0.0000, 0.0000, 0.0000, 0.0000, 0.0000, 0.0000, 0.0762, 0.1025, -0.3933, 0.0226, -0.0070, 0.0102, 490, 771640, 0.0000, 0.0000, -0.3213, 0.0000, 1.3678, 0.0747, -0.7527, 0.0000, 0.0000, -0.3440
6.7590, 0.0000, 0.0000, 0.0000, 0.0000, 0.0000, 0.0000, 0.0772, 0.1026, -0.3948, 0.0225, -0.0054, 0.0101, 491, 771640, 0.0000, 0.0000, -0.3253, 0.0000, 1.3678, 0.0746, -0.7527, 0.0000, 0.0000, -0.3478
6.7790, 0.0000, 0.0000, 0.0000, 0.0000, 0.0000, 0.0000, 0.0779, 0.1029, -0.3963, 0.0225, -0.0036, 0.0090, 492, 771640, 0.0000, 0.0000, -0.3292, 0.0000, 1.3676, 0.0745, -0.7527, 0.0000, 0.0000, -0.3518
6.7990, 0.0000, 0.0000, 0.0000, 0.0000, 0.0000, 0.0000, 0.0787, 0.1031, -0.3977, 0.0223, -0.0017, 0.0084, 493, 771640, 0.0000, 0.0000, -0.3332, 0.0000, 1.3676, 0.0746, -0.7527, 0.0000, 0.0000, -0.3558
6.8190, 0.0000, 0.0000, 0.0000, 0.0000, 0.0000, 0.0000, 0.0797, 0.1033, -0.3992, 0.0220, -0.0003, 0.0088, 494, 771640, 0.0000, 0.0000, -0.3372, 0.0000, 1.3678, 0.0746, -0.7528, 0.0000, 0.0000, -0.3598
6.8400, 0.0000, 0.0000, 0.0000, 0.0000, 0.0000, 0.0000, 0.0805, 0.1036, -0.4006, 0.0222, 0.0013, 0.0079, 495, 771640, 0.0000, 0.0000, -0.3412, 0.0000, 1.3675, 0.0745, -0.7527, 0.0000, 0.0000, -0.3638
6.8600, 0.0000, 0.0000, 0.0000, 0.0000, 0.0000, 0.0000, 0.0814, 0.1038, -0.4019, 0.0222, 0.0027, 0.0078, 496, 771640, 0.0000, 0.0000, -0.3452, 0.0000, 1.3675, 0.0745, -0.7527, 0.0000, 0.0000, -0.3680
6.8800, 0.0000, 0.0000, 0.0000, 0.0000, 0.0000, 0.0000, 0.0823, 0.1040, -0.4032, 0.0223, 0.0036, 0.0070, 497, 771640, 0.0000, 0.0000, -0.3492, 0.0000, 1.3678, 0.0747, -0.7528, 0.0000, 0.0000, -0.3720
6.9000, 0.0000, 0.0000, 0.0000, 0.0000, 0.0000, 0.0000, 0.0831, 0.1041, -0.4044, 0.0223, 0.0045, 0.0056, 498, 771640, 0.0000, 0.0000, -0.3533, 0.0000, 1.3675, 0.0744, -0.7527, 0.0000, 0.0000, -0.3760
6.9200, 0.0000, 0.0000, 0.0000, 0.0000, 0.0000, 0.0000, 0.0839, 0.1042, -0.4057, 0.0222, 0.0055, 0.0052, 499, 771640, 0.0000, 0.0000, -0.3573, 0.0000, 1.3675, 0.0744, -0.7527, 0.0000, 0.0000, -0.3800
6.9400, 0.0000, 0.0000, 0.0000, 0.0000, 0.0000, 0.0000, 0.0849, 0.1044, -0.4068, 0.0222, 0.0062, 0.0041, 500, 771640, 0.0000, 0.0000, -0.3613, 0.0000, 1.3677, 0.0746, -0.7527, 0.0000, 0.0000, -0.3840
6.9590, 0.0000, 0.0000, 0.0000, 0.0000, 0.0000, 0.0000, 0.0857, 0.1044, -0.4081, 0.0225, 0.0067, 0.0030, 501, 771640, 0.0000, 0.0000, -0.3653, 0.0000, 1.3678, 0.0747, -0.7528, 0.0000, 0.0000, -0.3880
6.9790, 0.0000, 0.0000, 0.0000, 0.0000, 0.0000, 0.0000, 0.0866, 0.1045, -0.4093, 0.0224, 0.0072, 0.0023, 502, 771640, 0.0000, 0.0000, -0.3693, 0.0000, 1.3675, 0.0744, -0.7527, 0.0000, 0.0000, -0.3918
6.9990, 0.0000, 0.0000, 0.0000, 0.0000, 0.0000, 0.0000, 0.0873, 0.1046, -0.4105, 0.0226, 0.0075, 0.0032, 503, 771640, 0.0000, 0.0000, -0.3732, 0.0000, 1.3678, 0.0746, -0.7527, 0.0000, 0.0000, -0.3958
7.0200, 0.0000, 0.0000, 0.0000, 0.0000, 0.0000, 0.0000, 0.0880, 0.1047, -0.4118, 0.0227, 0.0083, 0.0031, 504, 771640, 0.0000, 0.0000, -0.3772, 0.0000, 1.3675, 0.0745, -0.7527, 0.0000, 0.0000, -0.3998
7.0400, 0.0000, 0.0000, 0.0000, 0.0000, 0.0000, 0.0000, 0.0887, 0.1047, -0.4131, 0.0226, 0.0092, 0.0046, 505, 771640, 0.0000, 0.0000, -0.3812, 0.0000, 1.3678, 0.0746, -0.7528, 0.0000, 0.0000, -0.4040
7.0590, 0.0000, 0.0000, 0.0000, 0.0000, 0.0000, 0.0000, 0.0896, 0.1047, -0.4144, 0.0225, 0.0096, 0.0048, 506, 771640, 0.0000, 0.0000, -0.3853, 0.0000, 1.3675, 0.0744, -0.7527, 0.0000, 0.0000, -0.4080
7.0790, 0.0000, 0.0000, 0.0000, 0.0000, 0.0000, 0.0000, 0.0901, 0.1046, -0.4157, 0.0229, 0.0102, 0.0041, 507, 771640, 0.0000, 0.0000, -0.3892, 0.0000, 1.3675, 0.0745, -0.7527, 0.0000, 0.0000, -0.4118
7.0990, 0.0000, 0.0000, 0.0000, 0.0000, 0.0000, 0.0000, 0.0908, 0.1045, -0.4170, 0.0226, 0.0113, 0.0044, 508, 771640, 0.0000, 0.0000, -0.3932, 0.0000, 1.3675, 0.0745, -0.7527, 0.0000, 0.0000, -0.4158
7.1200, 0.0000, 0.0000, 0.0000, 0.0000, 0.0000, 0.0000, 0.0914, 0.1043, -0.4184, 0.0228, 0.0116, 0.0040, 509, 771640, 0.0000, 0.0000, -0.3972, 0.0000, 1.3675, 0.0744, -0.7527, 0.0000, 0.0000, -0.4198
7.1400, 0.0000, 0.0000, 0.0000, 0.0000, 0.0000, 0.0000, 0.0920, 0.1043, -0.4198, 0.0230, 0.0125, 0.0046, 510, 771640, 0.0000, 0.0000, -0.4012, 0.0000, 1.3675, 0.0745, -0.7527, 0.0000, 0.0000, -0.4240
7.1600, 0.0000, 0.0000, 0.0000, 0.0000, 0.0000, 0.0000, 0.0925, 0.1041, -0.4211, 0.0229, 0.0127, 0.0053, 511, 771640, 0.0000, 0.0000, -0.4052, 0.0000, 1.3675, 0.0745, -0.7527, 0.0000, 0.0000, -0.4280
7.1800, 0.0000, 0.0000, 0.0000, 0.0000, 0.0000, 0.0000, 0.0932, 0.1040, -0.4226, 0.0231, 0.0124, 0.0051, 512, 771640, 0.0000, 0.0000, -0.4093, 0.0000, 1.3675, 0.0745, -0.7527, 0.0000, 0.0000, -0.4320
7.1990, 0.0000, 0.0000, 0.0000, 0.0000, 0.0000, 0.0000, 0.0937, 0.1037, -0.4239, 0.0232, 0.0128, 0.0049, 513, 771640, 0.0000, 0.0000, -0.4133, 0.0000, 1.3675, 0.0744, -0.7527, 0.0000, 0.0000, -0.4360
7.2190, 0.0000, 0.0000, 0.0000, 0.0000, 0.0000, 0.0000, 0.0942, 0.1035, -0.4253, 0.0233, 0.0129, 0.0052, 514, 771640, 0.0000, 0.0000, -0.4172, 0.0000, 1.3674, 0.0745, -0.7527, 0.0000, 0.0000, -0.4398
7.2390, 0.0000, 0.0000, 0.0000, 0.0000, 0.0000, 0.0000, 0.0945, 0.1033, -0.4266, 0.0234, 0.0137, 0.0065, 515, 771640, 0.0000, 0.0000, -0.4212, 0.0000, 1.3678, 0.0747, -0.7527, 0.0000, 0.0000, -0.4438
7.2590, 0.0000, 0.0000, 0.0000, 0.0000, 0.0000, 0.0000, 0.0948, 0.1030, -0.4279, 0.0238, 0.0147, 0.0073, 516, 771640, 0.0000, 0.0000, -0.4252, 0.0000, 1.3675, 0.0745, -0.7527, 0.0000, 0.0000, -0.4478
7.2800, 0.0000, 0.0000, 0.0000, 0.0000, 0.0000, 0.0000, 0.0952, 0.1027, -0.4293, 0.0235, 0.0148, 0.0074, 517, 771640, 0.0000, 0.0000, -0.4292, 0.0000, 1.3675, 0.0745, -0.7527, 0.0000, 0.0000, -0.4518
7.3000, 0.0000, 0.0000, 0.0000, 0.0000, 0.0000, 0.0000, 0.0954, 0.1024, -0.4306, 0.0239, 0.0151, 0.0065, 518, 771640, 0.0000, 0.0000, -0.4332, 0.0000, 1.3675, 0.0745, -0.7527, 0.0000, 0.0000, -0.4560
7.3200, 0.0000, 0.0000, 0.0000, 0.0000, 0.0000, 0.0000, 0.0957, 0.1021, -0.4318, 0.0239, 0.0155, 0.0061, 519, 771640, 0.0000, 0.0000, -0.4372, 0.0000, 1.3675, 0.0745, -0.7527, 0.0000, 0.0000, -0.4600
7.3400, 0.0000, 0.0000, 0.0000, 0.0000, 0.0000, 0.0000, 0.0958, 0.1016, -0.4333, 0.0243, 0.0156, 0.0065, 520, 771640, 0.0000, 0.0000, -0.4413, 0.0000, 1.3675, 0.0745, -0.7527, 0.0000, 0.0000, -0.4640
7.3600, 0.0000, 0.0000, 0.0000, 0.0000, 0.0000, 0.0000, 0.0959, 0.1012, -0.4346, 0.0239, 0.0156, 0.0063, 521, 771640, 0.0000, 0.0000, -0.4453, 0.0000, 1.3675, 0.0744, -0.7527, 0.0000, 0.0000, -0.4680
7.3800, 0.0000, 0.0000, 0.0000, 0.0000, 0.0000, 0.0000, 0.0960, 0.1009, -0.4360, 0.0243, 0.0149, 0.0063, 522, 771640, 0.0000, 0.0000, -0.4493, 0.0000, 1.3675, 0.0745, -0.7527, 0.0000, 0.0000, -0.4720
7.4000, 0.0000, 0.0000, 0.0000, 0.0000, 0.0000, 0.0000, 0.0961, 0.1005, -0.4373, 0.0244, 0.0144, 0.0067, 523, 771640, 0.0000, 0.0000, -0.4533, 0.0000, 1.3675, 0.0745, -0.7527, 0.0000, 0.0000, -0.4760
7.4200, 0.0000, 0.0000, 0.0000, 0.0000, 0.0000, 0.0000, 0.0961, 0.0999, -0.4388, 0.0243, 0.0142, 0.0071, 524, 771640, 0.0000, 0.0000, -0.4573, 0.0000, 1.3675, 0.0744, -0.7527, 0.0000, 0.0000, -0.4800
7.4400, 0.0000, 0.0000, 0.0000, 0.0000, 0.0000, 0.0000, 0.0962, 0.0995, -0.4402, 0.0248, 0.0137, 0.0071, 525, 771640, 0.0000, 0.0000, -0.4613, 0.0000, 1.3675, 0.0746, -0.7527, 0.0000, 0.0000, -0.4840
7.4600, 0.0000, 0.0000, 0.0000, 0.0000, 0.0000, 0.0000, 0.0960, 0.0990, -0.4418, 0.0248, 0.0134, 0.0075, 526, 771640, 0.0000, 0.0000, -0.4653, 0.0000, 1.3675, 0.0746, -0.7527, 0.0000, 0.0000, -0.4880
7.4790, 0.0000, 0.0000, 0.0000, 0.0000, 0.0000, 0.0000, 0.0959, 0.0984, -0.4434, 0.0253, 0.0129, 0.0067, 527, 771640, 0.0000, 0.0000, -0.4693, 0.0000, 1.3675, 0.0744, -0.7526, 0.0000, 0.0000, -0.4920
7.4990, 0.0000, 0.0000, 0.0000, 0.0000, 0.0000, 0.0000, 0.0959, 0.0980, -0.4449, 0.0254, 0.0118, 0.0071, 528, 771640, 0.0000, 0.0000, -0.4733, 0.0000, 1.3675, 0.0744, -0.7527, 0.0000, 0.0000, -0.4958
7.5190, 0.0000, 0.0000, 0.0000, 0.0000, 0.0000, 0.0000, 0.0957, 0.0974, -0.4465, 0.0257, 0.0108, 0.0081, 529, 771640, 0.0000, 0.0000, -0.4773, 0.0000, 1.3675, 0.0745, -0.7526, 0.0000, 0.0000, -0.4998
7.5400, 0.0000, 0.0000, 0.0000, 0.0000, 0.0000, 0.0000, 0.0956, 0.0970, -0.4481, 0.0256, 0.0096, 0.0081, 530, 771640, 0.0000, 0.0000, -0.4812, 0.0000, 1.3676, 0.0745, -0.7527, 0.0000, 0.0000, -0.5038
7.5600, 0.0000, 0.0000, 0.0000, 0.0000, 0.0000, 0.0000, 0.0954, 0.0963, -0.4499, 0.0258, 0.0087, 0.0080, 531, 771640, 0.0000, 0.0000, -0.4853, 0.0000, 1.3675, 0.0745, -0.7527, 0.0000, 0.0000, -0.5080
7.5800, 0.0000, 0.0000, 0.0000, 0.0000, 0.0000, 0.0000, 0.0952, 0.0957, -0.4517, 0.0257, 0.0074, 0.0082, 532, 771640, 0.0000, 0.0000, -0.4893, 0.0000, 1.3676, 0.0745, -0.7527, 0.0000, 0.0000, -0.5120
7.6000, 0.0000, 0.0000, 0.0000, 0.0000, 0.0000, 0.0000, 0.0950, 0.0954, -0.4533, 0.0258, 0.0065, 0.0106, 533, 771640, 0.0000, 0.0000, -0.4933, 0.0000, 1.3675, 0.0746, -0.7527, 0.0000, 0.0000, -0.5160
7.6200, 0.0000, 0.0000, 0.0000, 0.0000, 0.0000, 0.0000, 0.0948, 0.0947, -0.4552, 0.0256, 0.0062, 0.0121, 534, 771640, 0.0000, 0.0000, -0.4973, 0.0000, 1.3675, 0.0746, -0.7526, 0.0000, 0.0000, -0.5200
7.6390, 0.0000, 0.0000, 0.0000, 0.0000, 0.0000, 0.0000, 0.0946, 0.0943, -0.4570, 0.0257, 0.0050, 0.0141, 535, 771640, 0.0000, 0.0000, -0.5013, 0.0000, 1.3674, 0.0745, -0.7527, 0.0000, 0.0000, -0.5240
7.6590, 0.0000, 0.0000, 0.0000, 0.0000, 0.0000, 0.0000, 0.0944, 0.0938, -0.4589, 0.0258, 0.0041, 0.0152, 536, 771640, 0.0000, 0.0000, -0.5053, 0.0000, 1.3675, 0.0745, -0.7527, 0.0000, 0.0000, -0.5278
7.6790, 0.0000, 0.0000, 0.0000, 0.0000, 0.0000, 0.0000, 0.0942, 0.0934, -0.4608, 0.0256, 0.0029, 0.0166, 537, 771640, 0.0000, 0.0000, -0.5092, 0.0000, 1.3675, 0.0745, -0.7527, 0.0000, 0.0000, -0.5318
7.7000, 0.0000, 0.0000, 0.0000, 0.0000, 0.0000, 0.0000, 0.0940, 0.0929, -0.4626, 0.0259, 0.0013, 0.0166, 538, 771640, 0.0000, 0.0000, -0.5132, 0.0000, 1.3675, 0.0746, -0.7527, 0.0000, 0.0000, -0.5358
7.7200, 0.0000, 0.0000, 0.0000, 0.0000, 0.0000, 0.0000, 0.0938, 0.0922, -0.4646, 0.0257, 0.0000, 0.0158, 539, 771640, 0.0000, 0.0000, -0.5172, 0.0000, 1.3674, 0.0744, -0.7526, 0.0000, 0.0000, -0.5400
7.7390, 0.0000, 0.0000, 0.0000, 0.0000, 0.0000, 0.0000, 0.0938, 0.0919, -0.4664, 0.0261, -0.0015, 0.0159, 540, 771640, 0.0000, 0.0000, -0.5213, 0.0000, 1.3675, 0.0745, -0.7527, 0.0000, 0.0000, -0.5440
7.7590, 0.0000, 0.0000, 0.0000, 0.0000, 0.0000, 0.0000, 0.0938, 0.0915, -0.4684, 0.0258, -0.0032, 0.0160, 541, 771640, 0.0000, 0.0000, -0.5252, 0.0000, 1.3675, 0.0746, -0.7527, 0.0000, 0.0000, -0.5478
7.7790, 0.0000, 0.0000, 0.0000, 0.0000, 0.0000, 0.0000, 0.0936, 0.0910, -0.4703, 0.0260, -0.0046, 0.0157, 542, 771640, 0.0000, 0.0000, -0.5292, 0.0000, 1.3675, 0.0745, -0.7527, 0.0000, 0.0000, -0.5518
7.7990, 0.0000, 0.0000, 0.0000, 0.0000, 0.0000, 0.0000, 0.0937, 0.0907, -0.4720, 0.0261, -0.0065, 0.0160, 543, 771640, 0.0000, 0.0000, -0.5332, 0.0000, 1.3674, 0.0745, -0.7527, 0.0000, 0.0000, -0.5558
7.8190, 0.0000, 0.0000, 0.0000, 0.0000, 0.0000, 0.0000, 0.0937, 0.0903, -0.4740, 0.0259, -0.0073, 0.0161, 544, 771640, 0.0000, 0.0000, -0.5372, 0.0000, 1.3675, 0.0746, -0.7527, 0.0000, 0.0000, -0.5598
7.8390, 0.0000, 0.0000, 0.0000, 0.0000, 0.0000, 0.0000, 0.0937, 0.0900, -0.4757, 0.0261, -0.0080, 0.0170, 545, 771640, 0.0000, 0.0000, -0.5412, 0.0000, 1.3675, 0.0745, -0.7527, 0.0000, 0.0000, -0.5638
7.8590, 0.0000, 0.0000, 0.0000, 0.0000, 0.0000, 0.0000, 0.0938, 0.0896, -0.4776, 0.0259, -0.0078, 0.0159, 546, 771640, 0.0000, 0.0000, -0.5452, 0.0000, 1.3675, 0.0745, -0.7526, 0.0000, 0.0000, -0.5678
7.8790, 0.0000, 0.0000, 0.0000, 0.0000, 0.0000, 0.0000, 0.0939, 0.0893, -0.4794, 0.0258, -0.0072, 0.0144, 547, 771640, 0.0000, 0.0000, -0.5492, 0.0000, 1.3675, 0.0745, -0.7527, 0.0000, 0.0000, -0.5718
7.9000, 0.0000, 0.0000, 0.0000, 0.0000, 0.0000, 0.0000, 0.0941, 0.0890, -0.4812, 0.0257, -0.0076, 0.0144, 548, 771640, 0.0000, 0.0000, -0.5532, 0.0000, 1.3677, 0.0747, -0.7527, 0.0000, 0.0000, -0.5758
7.9200, 0.0000, 0.0000, 0.0000, 0.0000, 0.0000, 0.0000, 0.0943, 0.0887, -0.4832, 0.0259, -0.0071, 0.0138, 549, 771640, 0.0000, 0.0000, -0.5572, 0.0000, 1.3675, 0.0745, -0.7527, 0.0000, 0.0000, -0.5800
7.9400, 0.0000, 0.0000, 0.0000, 0.0000, 0.0000, 0.0000, 0.0945, 0.0883, -0.4851, 0.0258, -0.0071, 0.0135, 550, 771640, 0.0000, 0.0000, -0.5612, 0.0000, 1.3674, 0.0744, -0.7527, 0.0000, 0.0000, -0.5840
7.9590, 0.0000, 0.0000, 0.0000, 0.0000, 0.0000, 0.0000, 0.0948, 0.0881, -0.4871, 0.0260, -0.0067, 0.0133, 551, 771640, 0.0000, 0.0000, -0.5652, 0.0000, 1.3675, 0.0746, -0.7527, 0.0000, 0.0000, -0.5880
7.9790, 0.0000, 0.0000, 0.0000, 0.0000, 0.0000, 0.0000, 0.0951, 0.0878, -0.4893, 0.0262, -0.0065, 0.0128, 552, 771640, 0.0000, 0.0000, -0.5692, 0.0000, 1.3675, 0.0746, -0.7526, 0.0000, 0.0000, -0.5918
7.9990, 0.0000, 0.0000, 0.0000, 0.0000, 0.0000, 0.0000, 0.0954, 0.0876, -0.4917, 0.0262, -0.0063, 0.0126, 553, 771640, 0.0000, 0.0000, -0.5732, 0.0000, 1.3675, 0.0745, -0.7527, 0.0000, 0.0000, -0.5958
8.0190, 0.0000, 0.0000, 0.0000, 0.0000, 0.0000, 0.0000, 0.0959, 0.0873, -0.4940, 0.0262, -0.0055, 0.0134, 554, 771640, 0.0000, 0.0000, -0.5772, 0.0000, 1.3675, 0.0745, -0.7527, 0.0000, 0.0000, -0.5998
8.0390, 0.0000, 0.0000, 0.0000, 0.0000, 0.0000, 0.0000, 0.0963, 0.0872, -0.4966, 0.0259, -0.0043, 0.0126, 555, 771640, 0.0000, 0.0000, -0.5812, 0.0000, 1.3675, 0.0745, -0.7527, 0.0000, 0.0000, -0.6038
8.0590, 0.0000, 0.0000, 0.0000, 0.0000, 0.0000, 0.0000, 0.0967, 0.0870, -0.4992, 0.0261, -0.0035, 0.0139, 556, 771640, 0.0000, 0.0000, -0.5852, 0.0000, 1.3675, 0.0746, -0.7527, 0.0000, 0.0000, -0.6078
8.0790, 0.0000, 0.0000, 0.0000, 0.0000, 0.0000, 0.0000, 0.0972, 0.0867, -0.5020, 0.0255, -0.0020, 0.0142, 557, 771640, 0.0000, 0.0000, -0.5892, 0.0000, 1.3674, 0.0745, -0.7527, 0.0000, 0.0000, -0.6118
8.0990, 0.0000, 0.0000, 0.0000, 0.0000, 0.0000, 0.0000, 0.0978, 0.0866, -0.5047, 0.0258, -0.0022, 0.0135, 558, 771640, 0.0000, 0.0000, -0.5932, 0.0000, 1.3675, 0.0745, -0.7527, 0.0000, 0.0000, -0.6158
8.1190, 0.0000, 0.0000, 0.0000, 0.0000, 0.0000, 0.0000, 0.0983, 0.0864, -0.5076, 0.0255, -0.0016, 0.0134, 559, 771640, 0.0000, 0.0000, -0.5972, 0.0000, 1.3675, 0.0746, -0.7527, 0.0000, 0.0000, -0.6198
8.1390, 0.0000, 0.0000, 0.0000, 0.0000, 0.0000, 0.0000, 0.0988, 0.0862, -0.5106, 0.0254, -0.0004, 0.0124, 560, 771640, 0.0000, 0.0000, -0.6012, 0.0000, 1.3674, 0.0745, -0.7526, 0.0000, 0.0000, -0.6238
8.1590, 0.0000, 0.0000, 0.0000, 0.0000, 0.0000, 0.0000, 0.0993, 0.0859, -0.5135, 0.0252, -0.0001, 0.0131, 561, 771640, 0.0000, 0.0000, -0.6052, 0.0000, 1.3674, 0.0744, -0.7527, 0.0000, 0.0000, -0.6278
8.1790, 0.0000, 0.0000, 0.0000, 0.0000, 0.0000, 0.0000, 0.0999, 0.0859, -0.5164, 0.0254, 0.0011, 0.0122, 562, 771640, 0.0000, 0.0000, -0.6091, 0.0000, 1.3675, 0.0745, -0.7527, 0.0000, 0.0000, -0.6318
8.2000, 0.0000, 0.0000, 0.0000, 0.0000, 0.0000, 0.0000, 0.1005, 0.0858, -0.5193, 0.0255, 0.0020, 0.0131, 563, 771640, 0.0000, 0.0000, -0.6131, 0.0000, 1.3675, 0.0746, -0.7527, 0.0000, 0.0000, -0.6358
8.2200, 0.0000, 0.0000, 0.0000, 0.0000, 0.0000, 0.0000, 0.1011, 0.0856, -0.5223, 0.0250, 0.0036, 0.0139, 564, 771640, 0.0000, 0.0000, -0.6172, 0.0000, 1.3675, 0.0745, -0.7527, 0.0000, 0.0000, -0.6400
8.2400, 0.0000, 0.0000, 0.0000, 0.0000, 0.0000, 0.0000, 0.1016, 0.0855, -0.5250, 0.0251, 0.0045, 0.0148, 565, 771640, 0.0000, 0.0000, -0.6212, 0.0000, 1.3675, 0.0744, -0.7527, 0.0000, 0.0000, -0.6440
8.2600, 0.0000, 0.0000, 0.0000, 0.0000, 0.0000, 0.0000, 0.1021, 0.0855, -0.5279, 0.0246, 0.0048, 0.0174, 566, 771640, 0.0000, 0.0000, -0.6252, 0.0000, 1.3675, 0.0745, -0.7527, 0.0000, 0.0000, -0.6480
8.2800, 0.0000, 0.0000, 0.0000, 0.0000, 0.0000, 0.0000, 0.1027, 0.0855, -0.5307, 0.0242, 0.0059, 0.0177, 567, 771640, 0.0000, 0.0000, -0.6292, 0.0000, 1.3675, 0.0746, -0.7527, 0.0000, 0.0000, -0.6520
8.2990, 0.0000, 0.0000, 0.0000, 0.0000, 0.0000, 0.0000, 0.1032, 0.0852, -0.5334, 0.0245, 0.0061, 0.0191, 568, 771640, 0.0000, 0.0000, -0.6333, 0.0000, 1.3675, 0.0744, -0.7527, 0.0000, 0.0000, -0.6560
8.3200, 0.0000, 0.0000, 0.0000, 0.0000, 0.0000, 0.0000, 0.1038, 0.0853, -0.5363, 0.0236, 0.0069, 0.0192, 569, 771640, 0.0000, 0.0000, -0.6372, 0.0000, 1.3674, 0.0745, -0.7527, 0.0000, 0.0000, -0.6598
8.3400, 0.0000, 0.0000, 0.0000, 0.0000, 0.0000, 0.0000, 0.1043, 0.0852, -0.5390, 0.0240, 0.0070, 0.0194, 570, 771640, 0.0000, 0.0000, -0.6412, 0.0000, 1.3675, 0.0746, -0.7527, 0.0000, 0.0000, -0.6640
8.3600, 0.0000, 0.0000, 0.0000, 0.0000, 0.0000, 0.0000, 0.1048, 0.0852, -0.5420, 0.0237, 0.0078, 0.0187, 571, 771640, 0.0000, 0.0000, -0.6453, 0.0000, 1.3675, 0.0745, -0.7527, 0.0000, 0.0000, -0.6680
8.3800, 0.0000, 0.0000, 0.0000, 0.0000, 0.0000, 0.0000, 0.1053, 0.0851, -0.5448, 0.0233, 0.0088, 0.0188, 572, 771640, 0.0000, 0.0000, -0.6493, 0.0000, 1.3675, 0.0745, -0.7526, 0.0000, 0.0000, -0.6720
8.4000, 0.0000, 0.0000, 0.0000, 0.0000, 0.0000, 0.0000, 0.1058, 0.0851, -0.5478, 0.0230, 0.0100, 0.0189, 573, 771640, 0.0000, 0.0000, -0.6533, 0.0000, 1.3675, 0.0745, -0.7527, 0.0000, 0.0000, -0.6760
8.4200, 0.0000, 0.0000, 0.0000, 0.0000, 0.0000, 0.0000, 0.1062, 0.0852, -0.5508, 0.0231, 0.0106, 0.0186, 574, 771640, 0.0000, 0.0000, -0.6573, 0.0000, 1.3677, 0.0747, -0.7527, 0.0000, 0.0000, -0.6800
8.4400, 0.0000, 0.0000, 0.0000, 0.0000, 0.0000, 0.0000, 0.1066, 0.0852, -0.5539, 0.0228, 0.0112, 0.0194, 575, 771640, 0.0000, 0.0000, -0.6613, 0.0000, 1.3675, 0.0744, -0.7527, 0.0000, 0.0000, -0.6840
8.4600, 0.0000, 0.0000, 0.0000, 0.0000, 0.0000, 0.0000, 0.1070, 0.0853, -0.5571, 0.0227, 0.0118, 0.0180, 576, 771640, 0.0000, 0.0000, -0.6653, 0.0000, 1.3674, 0.0744, -0.7527, 0.0000, 0.0000, -0.6880
8.4800, 0.0000, 0.0000, 0.0000, 0.0000, 0.0000, 0.0000, 0.1073, 0.0855, -0.5603, 0.0227, 0.0127, 0.0188, 577, 771640, 0.0000, 0.0000, -0.6693, 0.0000, 1.3675, 0.0745, -0.7527, 0.0000, 0.0000, -0.6920
8.5000, 0.0000, 0.0000, 0.0000, 0.0000, 0.0000, 0.0000, 0.1077, 0.0857, -0.5636, 0.0221, 0.0140, 0.0188, 578, 771640, 0.0000, 0.0000, -0.6733, 0.0000, 1.3677, 0.0747, -0.7528, 0.0000, 0.0000, -0.6960
8.5200, 0.0000, 0.0000, 0.0000, 0.0000, 0.0000, 0.0000, 0.1078, 0.0857, -0.5670, 0.0221, 0.0147, 0.0194, 579, 771640, 0.0000, 0.0000, -0.6773, 0.0000, 1.3674, 0.0744, -0.7527, 0.0000, 0.0000, -0.7000
8.5400, 0.0000, 0.0000, 0.0000, 0.0000, 0.0000, 0.0000, 0.1082, 0.0860, -0.5705, 0.0219, 0.0149, 0.0196, 580, 771640, 0.0000, 0.0000, -0.6813, 0.0000, 1.3675, 0.0744, -0.7527, 0.0000, 0.0000, -0.7040
8.5600, 0.0000, 0.0000, 0.0000, 0.0000, 0.0000, 0.0000, 0.1083, 0.0864, -0.5739, 0.0219, 0.0157, 0.0206, 581, 771640, 0.0000, 0.0000, -0.6853, 0.0000, 1.3674, 0.0744, -0.7526, 0.0000, 0.0000, -0.7080
8.5800, 0.0000, 0.0000, 0.0000, 0.0000, 0.0000, 0.0000, 0.1084, 0.0865, -0.5775, 0.0219, 0.0159, 0.0209, 582, 771640, 0.0000, 0.0000, -0.6893, 0.0000, 1.3677, 0.0746, -0.7528, 0.0000, 0.0000, -0.7120
8.6000, 0.0000, 0.0000, 0.0000, 0.0000, 0.0000, 0.0000, 0.1084, 0.0867, -0.5810, 0.0218, 0.0171, 0.0195, 583, 771640, 0.0000, 0.0000, -0.6933, 0.0000, 1.3674, 0.0744, -0.7527, 0.0000, 0.0000, -0.7160
8.6200, 0.0000, 0.0000, 0.0000, 0.0000, 0.0000, 0.0000, 0.1085, 0.0871, -0.5846, 0.0218, 0.0182, 0.0202, 584, 771640, 0.0000, 0.0000, -0.6973, 0.0000, 1.3674, 0.0745, -0.7527, 0.0000, 0.0000, -0.7200
8.6400, 0.0000, 0.0000, 0.0000, 0.0000, 0.0000, 0.0000, 0.1083, 0.0874, -0.5882, 0.0216, 0.0188, 0.0190, 585, 771640, 0.0000, 0.0000, -0.7013, 0.0000, 1.3677, 0.0747, -0.7527, 0.0000, 0.0000, -0.7240
8.6590, 0.0000, 0.0000, 0.0000, 0.0000, 0.0000, 0.0000, 0.1083, 0.0878, -0.5917, 0.0218, 0.0194, 0.0187, 586, 771640, 0.0000, 0.0000, -0.7053, 0.0000, 1.3675, 0.0744, -0.7527, 0.0000, 0.0000, -0.7280
8.6790, 0.0000, 0.0000, 0.0000, 0.0000, 0.0000, 0.0000, 0.1081, 0.0881, -0.5954, 0.0215, 0.0199, 0.0176, 587, 771640, 0.0000, 0.0000, -0.7093, 0.0000, 1.3674, 0.0744, -0.7527, 0.0000, 0.0000, -0.7318
8.6990, 0.0000, 0.0000, 0.0000, 0.0000, 0.0000, 0.0000, 0.1079, 0.0886, -0.5988, 0.0214, 0.0206, 0.0178, 588, 771640, 0.0000, 0.0000, -0.7133, 0.0000, 1.3675, 0.0745, -0.7527, 0.0000, 0.0000, -0.7358
8.7190, 0.0000, 0.0000, 0.0000, 0.0000, 0.0000, 0.0000, 0.1076, 0.0889, -0.6022, 0.0216, 0.0206, 0.0160, 589, 771640, 0.0000, 0.0000, -0.7173, 0.0000, 1.3677, 0.0746, -0.7527, 0.0000, 0.0000, -0.7398
8.7390, 0.0000, 0.0000, 0.0000, 0.0000, 0.0000, 0.0000, 0.1072, 0.0893, -0.6059, 0.0212, 0.0204, 0.0152, 590, 771640, 0.0000, 0.0000, -0.7212, 0.0000, 1.3675, 0.0744, -0.7527, 0.0000, 0.0000, -0.7438
8.7590, 0.0000, 0.0000, 0.0000, 0.0000, 0.0000, 0.0000, 0.1069, 0.0897, -0.6091, 0.0213, 0.0192, 0.0134, 591, 771640, 0.0000, 0.0000, -0.7252, 0.0000, 1.3674, 0.0744, -0.7526, 0.0000, 0.0000, -0.7478
8.7800, 0.0000, 0.0000, 0.0000, 0.0000, 0.0000, 0.0000, 0.1065, 0.0901, -0.6127, 0.0210, 0.0187, 0.0127, 592, 771640, 0.0000, 0.0000, -0.7292, 0.0000, 1.3674, 0.0744, -0.7527, 0.0000, 0.0000, -0.7518
8.8000, 0.0000, 0.0000, 0.0000, 0.0000, 0.0000, 0.0000, 0.1060, 0.0905, -0.6160, 0.0213, 0.0177, 0.0113, 593, 771640, 0.0000, 0.0000, -0.7332, 0.0000, 1.3677, 0.0746, -0.7527, 0.0000, 0.0000, -0.7560
8.8200, 0.0000, 0.0000, 0.0000, 0.0000, 0.0000, 0.0000, 0.1055, 0.0909, -0.6193, 0.0210, 0.0173, 0.0124, 594, 771640, 0.0000, 0.0000, -0.7372, 0.0000, 1.3675, 0.0743, -0.7527, 0.0000, 0.0000, -0.7600
8.8400, 0.0000, 0.0000, 0.0000, 0.0000, 0.0000, 0.0000, 0.1050, 0.0913, -0.6226, 0.0211, 0.0181, 0.0111, 595, 771640, 0.0000, 0.0000, -0.7413, 0.0000, 1.3674, 0.0744, -0.7527, 0.0000, 0.0000, -0.7640
8.8600, 0.0000, 0.0000, 0.0000, 0.0000, 0.0000, 0.0000, 0.1042, 0.0918, -0.6257, 0.0209, 0.0182, 0.0117, 596, 771640, 0.0000, 0.0000, -0.7453, 0.0000, 1.3675, 0.0745, -0.7527, 0.0000, 0.0000, -0.7680
8.8800, 0.0000, 0.0000, 0.0000, 0.0000, 0.0000, 0.0000, 0.1036, 0.0922, -0.6290, 0.0208, 0.0179, 0.0115, 597, 771640, 0.0000, 0.0000, -0.7493, 0.0000, 1.3675, 0.0745, -0.7527, 0.0000, 0.0000, -0.7720
8.9000, 0.0000, 0.0000, 0.0000, 0.0000, 0.0000, 0.0000, 0.1029, 0.0925, -0.6323, 0.0203, 0.0173, 0.0095, 598, 771640, 0.0000, 0.0000, -0.7533, 0.0000, 1.3675, 0.0745, -0.7526, 0.0000, 0.0000, -0.7760
8.9200, 0.0000, 0.0000, 0.0000, 0.0000, 0.0000, 0.0000, 0.1021, 0.0928, -0.6355, 0.0207, 0.0156, 0.0088, 599, 771640, 0.0000, 0.0000, -0.7573, 0.0000, 1.3675, 0.0745, -0.7526, 0.0000, 0.0000, -0.7800
8.9400, 0.0000, 0.0000, 0.0000, 0.0000, 0.0000, 0.0000, 0.1014, 0.0933, -0.6389, 0.0201, 0.0148, 0.0081, 600, 771640, 0.0000, 0.0000, -0.7613, 0.0000, 1.3675, 0.0745, -0.7527, 0.0000, 0.0000, -0.7840
8.9600, 0.0000, 0.0000, 0.0000, 0.0000, 0.0000, 0.0000, 0.1004, 0.0935, -0.6421, 0.0201, 0.0144, 0.0077, 601, 771640, 0.0000, 0.0000, -0.7653, 0.0000, 1.3674, 0.0744, -0.7526, 0.0000, 0.0000, -0.7880
8.9800, 0.0000, 0.0000, 0.0000, 0.0000, 0.0000, 0.0000, 0.0997, 0.0938, -0.6455, 0.0201, 0.0139, 0.0072, 602, 771640, 0.0000, 0.0000, -0.7693, 0.0000, 1.3673, 0.0744, -0.7525, 0.0000, 0.0000, -0.7920
9.0000, 0.0000, 0.0000, 0.0000, 0.0000, 0.0000, 0.0000, 0.0988, 0.0941, -0.6487, 0.0198, 0.0133, 0.0078, 603, 771640, 0.0000, 0.0000, -0.7733, 0.0000, 1.3674, 0.0745, -0.7526, 0.0000, 0.0000, -0.7960
9.0200, 0.0000, 0.0000, 0.0000, 0.0000, 0.0000, 0.0000, 0.0979, 0.0944, -0.6522, 0.0193, 0.0127, 0.0078, 604, 771640, 0.0000, 0.0000, -0.7773, 0.0000, 1.3673, 0.0744, -0.7525, 0.0000, 0.0000, -0.8000
9.0400, 0.0000, 0.0000, 0.0000, 0.0000, 0.0000, 0.0000, 0.0969, 0.0946, -0.6555, 0.0190, 0.0119, 0.0084, 605, 771640, 0.0000, 0.0000, -0.7813, 0.0000, 1.3673, 0.0743, -0.7526, 0.0000, 0.0000, -0.8040
9.0590, 0.0000, 0.0000, 0.0000, 0.0000, 0.0000, 0.0000, 0.0959, 0.0949, -0.6589, 0.0187, 0.0108, 0.0089, 606, 771640, 0.0000, 0.0000, -0.7853, 0.0000, 1.3675, 0.0745, -0.7527, 0.0000, 0.0000, -0.8080
9.0790, 0.0000, 0.0000, 0.0000, 0.0000, 0.0000, 0.0000, 0.0950, 0.0952, -0.6623, 0.0187, 0.0096, 0.0074, 607, 771640, 0.0000, 0.0000, -0.7893, 0.0000, 1.3675, 0.0745, -0.7527, 0.0000, 0.0000, -0.8118
9.0990, 0.0000, 0.0000, 0.0000, 0.0000, 0.0000, 0.0000, 0.0941, 0.0953, -0.6656, 0.0185, 0.0072, 0.0072, 608, 771640, 0.0000, 0.0000, -0.7933, 0.0000, 1.3677, 0.0746, -0.7528, 0.0000, 0.0000, -0.8158
9.1190, 0.0000, 0.0000, 0.0000, 0.0000, 0.0000, 0.0000, 0.0931, 0.0953, -0.6689, 0.0184, 0.0055, 0.0067, 609, 771640, 0.0000, 0.0000, -0.7972, 0.0000, 1.3674, 0.0743, -0.7527, 0.0000, 0.0000, -0.8198
9.1390, 0.0000, 0.0000, 0.0000, 0.0000, 0.0000, 0.0000, 0.0922, 0.0957, -0.6723, 0.0182, 0.0040, 0.0078, 610, 771640, 0.0000, 0.0000, -0.8012, 0.0000, 1.3675, 0.0745, -0.7527, 0.0000, 0.0000, -0.8238
9.1590, 0.0000, 0.0000, 0.0000, 0.0000, 0.0000, 0.0000, 0.0913, 0.0958, -0.6757, 0.0180, 0.0030, 0.0077, 611, 771640, 0.0000, 0.0000, -0.8052, 0.0000, 1.3677, 0.0746, -0.7527, 0.0000, 0.0000, -0.8278
9.1790, 0.0000, 0.0000, 0.0000, 0.0000, 0.0000, 0.0000, 0.0904, 0.0959, -0.6792, 0.0178, 0.0024, 0.0082, 612, 771640, 0.0000, 0.0000, -0.8092, 0.0000, 1.3674, 0.0744, -0.7527, 0.0000, 0.0000, -0.8318
9.1990, 0.0000, 0.0000, 0.0000, 0.0000, 0.0000, 0.0000, 0.0894, 0.0960, -0.6826, 0.0172, 0.0023, 0.0086, 613, 771640, 0.0000, 0.0000, -0.8132, 0.0000, 1.3674, 0.0744, -0.7527, 0.0000, 0.0000, -0.8358
9.2190, 0.0000, 0.0000, 0.0000, 0.0000, 0.0000, 0.0000, 0.0885, 0.0961, -0.6861, 0.0169, 0.0022, 0.0087, 614, 771640, 0.0000, 0.0000, -0.8172, 0.0000, 1.3675, 0.0745, -0.7527, 0.0000, 0.0000, -0.8398
9.2390, 0.0000, 0.0000, 0.0000, 0.0000, 0.0000, 0.0000, 0.0875, 0.0961, -0.6897, 0.0170, 0.0017, 0.0096, 615, 771640, 0.0000, 0.0000, -0.8212, 0.0000, 1.3677, 0.0746, -0.7527, 0.0000, 0.0000, -0.8438
9.2590, 0.0000, 0.0000, 0.0000, 0.0000, 0.0000, 0.0000, 0.0868, 0.0961, -0.6933, 0.0166, 0.0009, 0.0101, 616, 771640, 0.0000, 0.0000, -0.8252, 0.0000, 1.3675, 0.0744, -0.7527, 0.0000, 0.0000, -0.8478
9.2790, 0.0000, 0.0000, 0.0000, 0.0000, 0.0000, 0.0000, 0.0860, 0.0961, -0.6969, 0.0161, 0.0003, 0.0104, 617, 771640, 0.0000, 0.0000, -0.8292, 0.0000, 1.3674, 0.0744, -0.7526, 0.0000, 0.0000, -0.8518
9.2990, 0.0000, 0.0000, 0.0000, 0.0000, 0.0000, 0.0000, 0.0852, 0.0962, -0.7004, 0.0164, -0.0007, 0.0104, 618, 771640, 0.0000, 0.0000, -0.8332, 0.0000, 1.3677, 0.0746, -0.7527, 0.0000, 0.0000, -0.8558
9.3190, 0.0000, 0.0000, 0.0000, 0.0000, 0.0000, 0.0000, 0.0845, 0.0961, -0.7041, 0.0158, -0.0016, 0.0105, 619, 771640, 0.0000, 0.0000, -0.8372, 0.0000, 1.3675, 0.0745, -0.7527, 0.0000, 0.0000, -0.8598
9.3390, 0.0000, 0.0000, 0.0000, 0.0000, 0.0000, 0.0000, 0.0838, 0.0961, -0.7077, 0.0157, -0.0025, 0.0106, 620, 771640, 0.0000, 0.0000, -0.8412, 0.0000, 1.3674, 0.0744, -0.7527, 0.0000, 0.0000, -0.8638
9.3590, 0.0000, 0.0000, 0.0000, 0.0000, 0.0000, 0.0000, 0.0831, 0.0960, -0.7113, 0.0156, -0.0029, 0.0095, 621, 771640, 0.0000, 0.0000, -0.8451, 0.0000, 1.3674, 0.0744, -0.7527, 0.0000, 0.0000, -0.8678
9.3800, 0.0000, 0.0000, 0.0000, 0.0000, 0.0000, 0.0000, 0.0824, 0.0959, -0.7147, 0.0150, -0.0035, 0.0095, 622, 771640, 0.0000, 0.0000, -0.8491, 0.0000, 1.3677, 0.0747, -0.7527, 0.0000, 0.0000, -0.8718
9.4000, 0.0000, 0.0000, 0.0000, 0.0000, 0.0000, 0.0000, 0.0819, 0.0958, -0.7185, 0.0147, -0.0040, 0.0099, 623, 771640, 0.0000, 0.0000, -0.8532, 0.0000, 1.3674, 0.0744, -0.7527, 0.0000, 0.0000, -0.8760
9.4200, 0.0000, 0.0000, 0.0000, 0.0000, 0.0000, 0.0000, 0.0813, 0.0957, -0.7218, 0.0146, -0.0043, 0.0104, 624, 771640, 0.0000, 0.0000, -0.8572, 0.0000, 1.3675, 0.0744, -0.7527, 0.0000, 0.0000, -0.8800
9.4390, 0.0000, 0.0000, 0.0000, 0.0000, 0.0000, 0.0000, 0.0808, 0.0956, -0.7254, 0.0144, -0.0045, 0.0099, 625, 771640, 0.0000, 0.0000, -0.8612, 0.0000, 1.3675, 0.0745, -0.7526, 0.0000, 0.0000, -0.8840
9.4600, 0.0000, 0.0000, 0.0000, 0.0000, 0.0000, 0.0000, 0.0803, 0.0954, -0.7289, 0.0140, -0.0051, 0.0089, 626, 771640, 0.0000, 0.0000, -0.8652, 0.0000, 1.3674, 0.0745, -0.7527, 0.0000, 0.0000, -0.8878
9.4800, 0.0000, 0.0000, 0.0000, 0.0000, 0.0000, 0.0000, 0.0800, 0.0951, -0.7324, 0.0133, -0.0060, 0.0083, 627, 771640, 0.0000, 0.0000, -0.8692, 0.0000, 1.3677, 0.0746, -0.7527, 0.0000, 0.0000, -0.8920
9.5000, 0.0000, 0.0000, 0.0000, 0.0000, 0.0000, 0.0000, 0.0797, 0.0951, -0.7358, 0.0131, -0.0065, 0.0084, 628, 771640, 0.0000, 0.0000, -0.8732, 0.0000, 1.3674, 0.0744, -0.7527, 0.0000, 0.0000, -0.8960
9.5190, 0.0000, 0.0000, 0.0000, 0.0000, 0.0000, 0.0000, 0.0793, 0.0948, -0.7392, 0.0128, -0.0071, 0.0083, 629, 771640, 0.0000, 0.0000, -0.8773, 0.0000, 1.3675, 0.0746, -0.7527, 0.0000, 0.0000, -0.9000
9.5390, 0.0000, 0.0000, 0.0000, 0.0000, 0.0000, 0.0000, 0.0791, 0.0945, -0.7426, 0.0120, -0.0077, 0.0088, 630, 771640, 0.0000, 0.0000, -0.8812, 0.0000, 1.3678, 0.0747, -0.7528, 0.0000, 0.0000, -0.9038
9.5590, 0.0000, 0.0000, 0.0000, 0.0000, 0.0000, 0.0000, 0.0788, 0.0942, -0.7461, 0.0118, -0.0078, 0.0078, 631, 771640, 0.0000, 0.0000, -0.8852, 0.0000, 1.3677, 0.0747, -0.7528, 0.0000, 0.0000, -0.9078
9.5790, 0.0000, 0.0000, 0.0000, 0.0000, 0.0000, 0.0000, 0.0787, 0.0941, -0.7493, 0.0114, -0.0085, 0.0088, 632, 771640, 0.0000, 0.0000, -0.8892, 0.0000, 1.3678, 0.0747, -0.7527, 0.0000, 0.0000, -0.9118
9.5990, 0.0000, 0.0000, 0.0000, 0.0000, 0.0000, 0.0000, 0.0787, 0.0938, -0.7525, 0.0107, -0.0088, 0.0107, 633, 771640, 0.0000, 0.0000, -0.8932, 0.0000, 1.3677, 0.0746, -0.7527, 0.0000, 0.0000, -0.9158
9.6200, 0.0000, 0.0000, 0.0000, 0.0000, 0.0000, 0.0000, 0.0785, 0.0935, -0.7558, 0.0102, -0.0086, 0.0112, 634, 771640, 0.0000, 0.0000, -0.8972, 0.0000, 1.3675, 0.0744, -0.7527, 0.0000, 0.0000, -0.9198
9.6400, 0.0000, 0.0000, 0.0000, 0.0000, 0.0000, 0.0000, 0.0785, 0.0932, -0.7588, 0.0098, -0.0082, 0.0129, 635, 771640, 0.0000, 0.0000, -0.9012, 0.0000, 1.3677, 0.0747, -0.7527, 0.0000, 0.0000, -0.9240
9.6600, 0.0000, 0.0000, 0.0000, 0.0000, 0.0000, 0.0000, 0.0786, 0.0930, -0.7619, 0.0092, -0.0071, 0.0138, 636, 771640, 0.0000, 0.0000, -0.9052, 0.0000, 1.3677, 0.0747, -0.7527, 0.0000, 0.0000, -0.9280
9.6790, 0.0000, 0.0000, 0.0000, 0.0000, 0.0000, 0.0000, 0.0787, 0.0926, -0.7649, 0.0089, -0.0059, 0.0147, 637, 771640, 0.0000, 0.0000, -0.9092, 0.0000, 1.3678, 0.0747, -0.7527, 0.0000, 0.0000, -0.9320
9.7000, 0.0000, 0.0000, 0.0000, 0.0000, 0.0000, 0.0000, 0.0788, 0.0923, -0.7678, 0.0086, -0.0053, 0.0158, 638, 771640, 0.0000, 0.0000, -0.9132, 0.0000, 1.3677, 0.0746, -0.7527, 0.0000, 0.0000, -0.9358
9.7200, 0.0000, 0.0000, 0.0000, 0.0000, 0.0000, 0.0000, 0.0790, 0.0920, -0.7707, 0.0081, -0.0052, 0.0176, 639, 771640, 0.0000, 0.0000, -0.9172, 0.0000, 1.3677, 0.0746, -0.7527, 0.0000, 0.0000, -0.9400
9.7400, 0.0000, 0.0000, 0.0000, 0.0000, 0.0000, 0.0000, 0.0793, 0.0918, -0.7737, 0.0072, -0.0051, 0.0184, 640, 771640, 0.0000, 0.0000, -0.9213, 0.0000, 1.3675, 0.0745, -0.7527, 0.0000, 0.0000, -0.9440
9.7590, 0.0000, 0.0000, 0.0000, 0.0000, 0.0000, 0.0000, 0.0796, 0.0914, -0.7766, 0.0069, -0.0045, 0.0186, 641, 771640, 0.0000, 0.0000, -0.9253, 0.0000, 1.3674, 0.0745, -0.7527, 0.0000, 0.0000, -0.9480
9.7790, 0.0000, 0.0000, 0.0000, 0.0000, 0.0000, 0.0000, 0.0800, 0.0910, -0.7795, 0.0065, -0.0033, 0.0184, 642, 771640, 0.0000, 0.0000, -0.9292, 0.0000, 1.3675, 0.0744, -0.7527, 0.0000, 0.0000, -0.9518
9.7990, 0.0000, 0.0000, 0.0000, 0.0000, 0.0000, 0.0000, 0.0804, 0.0907, -0.7823, 0.0058, -0.0032, 0.0191, 643, 771640, 0.0000, 0.0000, -0.9332, 0.0000, 1.3674, 0.0744, -0.7526, 0.0000, 0.0000, -0.9558
9.8190, 0.0000, 0.0000, 0.0000, 0.0000, 0.0000, 0.0000, 0.0809, 0.0906, -0.7854, 0.0055, -0.0029, 0.0189, 644, 771640, 0.0000, 0.0000, -0.9372, 0.0000, 1.3677, 0.0747, -0.7527, 0.0000, 0.0000, -0.9598
9.8390, 0.0000, 0.0000, 0.0000, 0.0000, 0.0000, 0.0000, 0.0813, 0.0902, -0.7883, 0.0053, -0.0024, 0.0187, 645, 771640, 0.0000, 0.0000, -0.9412, 0.0000, 1.3674, 0.0743, -0.7526, 0.0000, 0.0000, -0.9638
9.8590, 0.0000, 0.0000, 0.0000, 0.0000, 0.0000, 0.0000, 0.0819, 0.0900, -0.7914, 0.0048, -0.0023, 0.0208, 646, 771640, 0.0000, 0.0000, -0.9452, 0.0000, 1.3675, 0.0743, -0.7527, 0.0000, 0.0000, -0.9678
9.8790, 0.0000, 0.0000, 0.0000, 0.0000, 0.0000, 0.0000, 0.0825, 0.0899, -0.7945, 0.0044, -0.0019, 0.0213, 647, 771640, 0.0000, 0.0000, -0.9492, 0.0000, 1.3674, 0.0744, -0.7526, 0.0000, 0.0000, -0.9718
9.8990, 0.0000, 0.0000, 0.0000, 0.0000, 0.0000, 0.0000, 0.0830, 0.0896, -0.7976, 0.0041, -0.0011, 0.0220, 648, 771640, 0.0000, 0.0000, -0.9532, 0.0000, 1.3676, 0.0745, -0.7527, 0.0000, 0.0000, -0.9758
9.9190, 0.0000, 0.0000, 0.0000, 0.0000, 0.0000, 0.0000, 0.0837, 0.0894, -0.8007, 0.0039, -0.0002, 0.0219, 649, 771640, 0.0000, 0.0000, -0.9572, 0.0000, 1.3674, 0.0743, -0.7526, 0.0000, 0.0000, -0.9798
9.9390, 0.0000, 0.0000, 0.0000, 0.0000, 0.0000, 0.0000, 0.0843, 0.0894, -0.8040, 0.0036, 0.0001, 0.0219, 650, 771640, 0.0000, 0.0000, -0.9612, 0.0000, 1.3674, 0.0744, -0.7526, 0.0000, 0.0000, -0.9838
9.9690, 0.0000, 0.0000, 0.0000, 0.0000, 0.0000, 0.0000, 0.0850, 0.0893, -0.8072, 0.0029, 0.0005, 0.0230, 651, 771640, 0.0000, 0.0000, -0.9652, 0.0000, 1.3677, 0.0746, -0.7527, 0.0000, 0.0000, -0.9878
9.9890, 0.0000, 0.0000, 0.0000, 0.0000, 0.0000, 0.0000, 0.0858, 0.0892, -0.8104, 0.0028, 0.0014, 0.0233, 652, 771640, 0.0000, 0.0000, -0.9695, 0.0000, 1.3674, 0.0744, -0.7526, 0.0000, 0.0000, -0.9938
10.0000, 0.0000, 0.0000, 0.0000, 0.0000, 0.0000, 0.0000, 0.0864, 0.0891, -0.8137, 0.0026, 0.0027, 0.0236, 653, 771640, 0.0000, 0.0000, -0.9737, 0.0000, 1.3674, 0.0743, -0.7526, 0.0000, 0.0000, -0.9978
10.0200, 0.0000, 0.0000, 0.0000, 0.0000, 0.0000, 0.0000, 0.0872, 0.0891, -0.8169, 0.0023, 0.0036, 0.0233, 654, 771640, 0.0000, 0.0000, -0.9777, 0.0000, 1.3674, 0.0744, -0.7526, 0.0000, 0.0000, -1.0000
10.0400, 0.0000, 0.0000, 0.0000, 0.0000, 0.0000, 0.0000, 0.0880, 0.0892, -0.8203, 0.0020, 0.0043, 0.0220, 655, 771640, 0.0006, 0.0000, -0.9810, 0.0000, 1.3677, 0.0746, -0.7527, 0.0040, 0.0000, -1.0000
10.0590, 0.0000, 0.0000, 0.0000, 0.0000, 0.0000, 0.0000, 0.0887, 0.0890, -0.8236, 0.0022, 0.0049, 0.0220, 656, 771640, 0.0017, 0.0000, -0.9839, 0.0000, 1.3674, 0.0743, -0.7526, 0.0080, 0.0000, -1.0000
10.0800, 0.0000, 0.0000, 0.0000, 0.0000, 0.0000, 0.0000, 0.0895, 0.0891, -0.8269, 0.0016, 0.0059, 0.0219, 657, 771640, 0.0032, 0.0000, -0.9863, 0.0000, 1.3674, 0.0743, -0.7526, 0.0118, 0.0000, -1.0000
10.1000, 0.0000, 0.0000, 0.0000, 0.0000, 0.0000, 0.0000, 0.0902, 0.0893, -0.8303, 0.0013, 0.0072, 0.0226, 658, 771640, 0.0051, 0.0000, -0.9883, 0.0000, 1.3677, 0.0746, -0.7527, 0.0160, 0.0000, -1.0000
10.1200, 0.0000, 0.0000, 0.0000, 0.0000, 0.0000, 0.0000, 0.0910, 0.0893, -0.8335, 0.0013, 0.0080, 0.0231, 659, 771640, 0.0074, 0.0000, -0.9901, 0.0000, 1.3677, 0.0745, -0.7527, 0.0200, 0.0000, -1.0000
10.1390, 0.0000, 0.0000, 0.0000, 0.0000, 0.0000, 0.0000, 0.0917, 0.0895, -0.8369, 0.0010, 0.0090, 0.0226, 660, 771640, 0.0099, 0.0000, -0.9916, 0.0000, 1.3674, 0.0743, -0.7526, 0.0240, 0.0000, -1.0000
10.1690, 0.0000, 0.0000, 0.0000, 0.0000, 0.0000, 0.0000, 0.0926, 0.0897, -0.8401, 0.0005, 0.0098, 0.0227, 661, 771640, 0.0126, 0.0000, -0.9928, 0.0000, 1.3675, 0.0743, -0.7526, 0.0278, 0.0000, -1.0000
10.1790, 0.0000, 0.0000, 0.0000, 0.0000, 0.0000, 0.0000, 0.0933, 0.0900, -0.8435, 0.0003, 0.0105, 0.0217, 662, 771640, 0.0157, 0.0000, -0.9939, 0.0000, 1.3674, 0.0744, -0.7526, 0.0338, 0.0000, -1.0000
10.2000, 0.0000, 0.0000, 0.0000, 0.0000, 0.0000, 0.0000, 0.0940, 0.0901, -0.8467, 0.0002, 0.0107, 0.0218, 663, 771640, 0.0187, 0.0000, -0.9948, 0.0000, 1.3677, 0.0745, -0.7527, 0.0358, 0.0000, -1.0000
10.2200, 0.0000, 0.0000, 0.0000, 0.0000, 0.0000, 0.0000, 0.0947, 0.0903, -0.8501, 0.0000, 0.0113, 0.0217, 664, 771640, 0.0219, 0.0000, -0.9956, 0.0000, 1.3674, 0.0743, -0.7526, 0.0400, 0.0000, -1.0000
10.2400, 0.0000, 0.0000, 0.0000, 0.0000, 0.0000, 0.0000, 0.0955, 0.0907, -0.8534, -0.0001, 0.0112, 0.0215, 665, 771640, 0.0252, 0.0000, -0.9963, 0.0000, 1.3676, 0.0745, -0.7527, 0.0440, 0.0000, -1.0000
10.2700, 0.0000, 0.0000, 0.0000, 0.0000, 0.0000, 0.0000, 0.0962, 0.0910, -0.8567, -0.0001, 0.0112, 0.0218, 666, 771640, 0.0287, 0.0000, -0.9968, 0.0000, 1.3675, 0.0744, -0.7526, 0.0480, 0.0000, -1.0000
10.2900, 0.0000, 0.0000, 0.0000, 0.0000, 0.0000, 0.0000, 0.0968, 0.0913, -0.8600, -0.0002, 0.0115, 0.0216, 667, 771640, 0.0325, 0.0000, -0.9973, 0.0000, 1.3675, 0.0744, -0.7527, 0.0540, 0.0000, -1.0000
10.3000, 0.0000, 0.0000, 0.0000, 0.0000, 0.0000, 0.0000, 0.0976, 0.0916, -0.8633, -0.0006, 0.0108, 0.0218, 668, 771640, 0.0363, 0.0000, -0.9977, 0.0000, 1.3674, 0.0743, -0.7527, 0.0580, 0.0000, -1.0000
10.3200, 0.0000, 0.0000, 0.0000, 0.0000, 0.0000, 0.0000, 0.0983, 0.0920, -0.8666, -0.0008, 0.0109, 0.0201, 669, 771640, 0.0398, 0.0000, -0.9980, 0.0000, 1.3674, 0.0743, -0.7527, 0.0600, 0.0000, -1.0000
10.3400, 0.0000, 0.0000, 0.0000, 0.0000, 0.0000, 0.0000, 0.0990, 0.0922, -0.8698, -0.0005, 0.0104, 0.0189, 670, 771640, 0.0435, 0.0000, -0.9983, 0.0000, 1.3677, 0.0745, -0.7528, 0.0640, 0.0000, -1.0000
10.3590, 0.0000, 0.0000, 0.0000, 0.0000, 0.0000, 0.0000, 0.0997, 0.0925, -0.8730, -0.0008, 0.0101, 0.0169, 671, 771640, 0.0472, 0.0000, -0.9986, 0.0000, 1.3675, 0.0743, -0.7527, 0.0680, 0.0000, -1.0000
10.3800, 0.0000, 0.0000, 0.0000, 0.0000, 0.0000, 0.0000, 0.1003, 0.0929, -0.8762, -0.0007, 0.0091, 0.0152, 672, 771640, 0.0508, 0.0000, -0.9988, 0.0000, 1.3674, 0.0743, -0.7527, 0.0718, 0.0000, -1.0000
10.3990, 0.0000, 0.0000, 0.0000, 0.0000, 0.0000, 0.0000, 0.1010, 0.0932, -0.8791, -0.0006, 0.0079, 0.0146, 673, 771640, 0.0546, 0.0000, -0.9990, 0.0000, 1.3677, 0.0746, -0.7527, 0.0760, 0.0000, -1.0000
10.4290, 0.0000, 0.0000, 0.0000, 0.0000, 0.0000, 0.0000, 0.1016, 0.0935, -0.8823, -0.0008, 0.0065, 0.0134, 674, 771640, 0.0584, 0.0000, -0.9991, 0.0000, 1.3674, 0.0743, -0.7527, 0.0798, 0.0000, -1.0000
10.4490, 0.0000, 0.0000, 0.0000, 0.0000, 0.0000, 0.0000, 0.1023, 0.0938, -0.8853, -0.0008, 0.0053, 0.0136, 675, 771640, 0.0625, 0.0000, -0.9993, 0.0000, 1.3675, 0.0743, -0.7527, 0.0858, 0.0000, -1.0000
10.4690, 0.0000, 0.0000, 0.0000, 0.0000, 0.0000, 0.0000, 0.1030, 0.0942, -0.8882, -0.0005, 0.0037, 0.0132, 676, 771640, 0.0666, 0.0000, -0.9994, 0.0000, 1.3675, 0.0743, -0.7526, 0.0898, 0.0000, -1.0000
10.4890, 0.0000, 0.0000, 0.0000, 0.0000, 0.0000, 0.0000, 0.1037, 0.0945, -0.8912, -0.0005, 0.0025, 0.0124, 677, 771640, 0.0707, 0.0000, -0.9995, 0.0000, 1.3677, 0.0746, -0.7527, 0.0938, 0.0000, -1.0000
10.4990, 0.0000, 0.0000, 0.0000, 0.0000, 0.0000, 0.0000, 0.1044, 0.0947, -0.8940, -0.0008, 0.0011, 0.0120, 678, 771640, 0.0747, 0.0000, -0.9995, 0.0000, 1.3677, 0.0745, -0.7528, 0.0978, 0.0000, -1.0000
10.5190, 0.0000, 0.0000, 0.0000, 0.0000, 0.0000, 0.0000, 0.1051, 0.0950, -0.8966, -0.0008, 0.0002, 0.0101, 679, 771640, 0.0785, 0.0000, -0.9996, 0.0000, 1.3675, 0.0743, -0.7527, 0.0998, 0.0000, -1.0000
10.5390, 0.0000, 0.0000, 0.0000, 0.0000, 0.0000, 0.0000, 0.1058, 0.0951, -0.8996, -0.0007, 0.0000, 0.0091, 680, 771640, 0.0823, 0.0000, -0.9997, 0.0000, 1.3674, 0.0743, -0.7527, 0.1038, 0.0000, -1.0000
10.5690, 0.0000, 0.0000, 0.0000, 0.0000, 0.0000, 0.0000, 0.1065, 0.0953, -0.9020, -0.0005, -0.0007, 0.0087, 681, 771640, 0.0861, 0.0000, -0.9997, 0.0000, 1.3677, 0.0745, -0.7527, 0.1078, 0.0000, -1.0000
10.5900, 0.0000, 0.0000, 0.0000, 0.0000, 0.0000, 0.0000, 0.1073, 0.0954, -0.9048, -0.0007, -0.0018, 0.0085, 682, 771640, 0.0903, 0.0000, -0.9998, 0.0000, 1.3677, 0.0745, -0.7527, 0.1138, 0.0000, -1.0000
10.6000, 0.0000, 0.0000, 0.0000, 0.0000, 0.0000, 0.0000, 0.1081, 0.0956, -0.9073, -0.0003, -0.0028, 0.0079, 683, 771640, 0.0944, 0.0000, -0.9998, 0.0000, 1.3673, 0.0743, -0.7527, 0.1180, 0.0000, -1.0000
10.6200, 0.0000, 0.0000, 0.0000, 0.0000, 0.0000, 0.0000, 0.1091, 0.0957, -0.9099, -0.0002, -0.0044, 0.0076, 684, 771640, 0.0983, 0.0000, -0.9998, 0.0000, 1.3676, 0.0745, -0.7527, 0.1200, 0.0000, -1.0000
10.6400, 0.0000, 0.0000, 0.0000, 0.0000, 0.0000, 0.0000, 0.1099, 0.0958, -0.9124, -0.0002, -0.0060, 0.0081, 685, 771640, 0.1021, 0.0000, -0.9999, 0.0000, 1.3675, 0.0744, -0.7527, 0.1240, 0.0000, -1.0000
10.6700, 0.0000, 0.0000, 0.0000, 0.0000, 0.0000, 0.0000, 0.1109, 0.0957, -0.9149, 0.0001, -0.0073, 0.0066, 686, 771640, 0.1060, 0.0000, -0.9999, 0.0000, 1.3674, 0.0744, -0.7527, 0.1280, 0.0000, -1.0000
10.6890, 0.0000, 0.0000, 0.0000, 0.0000, 0.0000, 0.0000, 0.1120, 0.0957, -0.9172, 0.0003, -0.0089, 0.0062, 687, 771640, 0.1102, 0.0000, -0.9999, 0.0000, 1.3677, 0.0746, -0.7527, 0.1340, 0.0000, -1.0000
10.6990, 0.0000, 0.0000, 0.0000, 0.0000, 0.0000, 0.0000, 0.1132, 0.0957, -0.9197, 0.0001, -0.0101, 0.0058, 688, 771640, 0.1143, 0.0000, -0.9999, 0.0000, 1.3677, 0.0746, -0.7527, 0.1378, 0.0000, -1.0000
10.7290, 0.0000, 0.0000, 0.0000, 0.0000, 0.0000, 0.0000, 0.1142, 0.0956, -0.9219, -0.0001, -0.0108, 0.0060, 689, 771640, 0.1182, 0.0000, -0.9999, 0.0000, 1.3675, 0.0745, -0.7527, 0.1398, 0.0000, -1.0000
10.7490, 0.0000, 0.0000, 0.0000, 0.0000, 0.0000, 0.0000, 0.1154, 0.0956, -0.9241, 0.0001, -0.0114, 0.0076, 690, 771640, 0.1223, 0.0000, -0.9999, 0.0000, 1.3674, 0.0743, -0.7527, 0.1458, 0.0000, -1.0000
10.7690, 0.0000, 0.0000, 0.0000, 0.0000, 0.0000, 0.0000, 0.1167, 0.0956, -0.9261, 0.0001, -0.0121, 0.0093, 691, 771640, 0.1264, 0.0000, -0.9999, 0.0000, 1.3675, 0.0745, -0.7526, 0.1498, 0.0000, -1.0000
10.7790, 0.0000, 0.0000, 0.0000, 0.0000, 0.0000, 0.0000, 0.1180, 0.0954, -0.9282, -0.0001, -0.0128, 0.0106, 692, 771640, 0.1305, 0.0000, -1.0000, 0.0000, 1.3675, 0.0743, -0.7527, 0.1538, 0.0000, -1.0000
10.8090, 0.0000, 0.0000, 0.0000, 0.0000, 0.0000, 0.0000, 0.1195, 0.0952, -0.9301, -0.0001, -0.0136, 0.0118, 693, 771640, 0.1343, 0.0000, -1.0000, 0.0000, 1.3674, 0.0743, -0.7527, 0.1558, 0.0000, -1.0000
10.8190, 0.0000, 0.0000, 0.0000, 0.0000, 0.0000, 0.0000, 0.1211, 0.0950, -0.9320, 0.0001, -0.0148, 0.0132, 694, 771640, 0.1384, 0.0000, -1.0000, 0.0000, 1.3676, 0.0745, -0.7527, 0.1618, 0.0000, -1.0000
10.8390, 0.0000, 0.0000, 0.0000, 0.0000, 0.0000, 0.0000, 0.1226, 0.0949, -0.9337, -0.0001, -0.0160, 0.0144, 695, 771640, 0.1423, 0.0000, -1.0000, 0.0000, 1.3674, 0.0744, -0.7526, 0.1638, 0.0000, -1.0000
10.8590, 0.0000, 0.0000, 0.0000, 0.0000, 0.0000, 0.0000, 0.1244, 0.0946, -0.9355, -0.0002, -0.0163, 0.0152, 696, 771640, 0.1461, 0.0000, -1.0000, 0.0000, 1.3677, 0.0745, -0.7527, 0.1678, 0.0000, -1.0000
10.8790, 0.0000, 0.0000, 0.0000, 0.0000, 0.0000, 0.0000, 0.1260, 0.0943, -0.9371, 0.0000, -0.0155, 0.0157, 697, 771640, 0.1472, -0.0002, -1.0005, 0.0000, 1.3674, 0.0743, -0.7526, 0.1718, 0.0000, -1.0000
10.8990, 0.0000, 0.0000, 0.0000, 0.0000, 0.0000, 0.0000, 0.1279, 0.0942, -0.9388, -0.0002, -0.0151, 0.0164, 698, 771640, 0.1472, -0.0004, -1.0013, 0.0000, 1.3674, 0.0743, -0.7526, 0.1758, 0.0000, -1.0000
10.9190, 0.0000, 0.0000, 0.0000, 0.0000, 0.0000, 0.0000, 0.1297, 0.0939, -0.9403, -0.0003, -0.0153, 0.0161, 699, 771640, 0.1485, -0.0006, -1.0019, 0.0000, 1.3676, 0.0746, -0.7526, 0.1798, 0.0000, -1.0000
10.9400, 0.0000, 0.0000, 0.0000, 0.0000, 0.0000, 0.0000, 0.1317, 0.0936, -0.9420, 0.0000, -0.0158, 0.0161, 700, 771640, 0.1479, -0.0008, -1.0028, 0.0000, 1.3674, 0.0743, -0.7527, 0.1838, 0.0000, -1.0000
10.9600, 0.0000, 0.0000, 0.0000, 0.0000, 0.0000, 0.0000, 0.1338, 0.0934, -0.9435, -0.0002, -0.0164, 0.0169, 701, 771640, 0.1493, -0.0010, -1.0033, 0.0000, 1.3673, 0.0743, -0.7526, 0.1880, 0.0000, -1.0000
10.9800, 0.0000, 0.0000, 0.0000, 0.0000, 0.0000, 0.0000, 0.1360, 0.0932, -0.9450, -0.0001, -0.0163, 0.0173, 702, 771640, 0.1492, -0.0013, -1.0042, 0.0000, 1.3674, 0.0744, -0.7526, 0.1920, 0.0000, -1.0000
10.9990, 0.0000, 0.0000, 0.0000, 0.0000, 0.0000, 0.0000, 0.1382, 0.0930, -0.9465, -0.0005, -0.0156, 0.0170, 703, 771640, 0.1502, -0.0014, -1.0048, 0.0000, 1.3674, 0.0744, -0.7526, 0.1960, 0.0000, -1.0000
11.0190, 0.0000, 0.0000, 0.0000, 0.0000, 0.0000, 0.0000, 0.1404, 0.0928, -0.9479, -0.0002, -0.0150, 0.0175, 704, 771640, 0.1502, -0.0017, -1.0056, 0.0000, 1.3674, 0.0743, -0.7527, 0.1998, 0.0000, -1.0000
11.0390, 0.0000, 0.0000, 0.0000, 0.0000, 0.0000, 0.0000, 0.1428, 0.0926, -0.9494, -0.0004, -0.0141, 0.0169, 705, 771640, 0.1510, -0.0019, -1.0063, 0.0000, 1.3673, 0.0743, -0.7526, 0.2038, 0.0000, -1.0000
11.0590, 0.0000, 0.0000, 0.0000, 0.0000, 0.0000, 0.0000, 0.1452, 0.0924, -0.9507, -0.0003, -0.0133, 0.0175, 706, 771640, 0.1517, -0.0021, -1.0069, 0.0000, 1.3677, 0.0745, -0.7527, 0.2078, 0.0000, -1.0000
11.0790, 0.0000, 0.0000, 0.0000, 0.0000, 0.0000, 0.0000, 0.1478, 0.0922, -0.9521, -0.0002, -0.0121, 0.0173, 707, 771640, 0.1516, -0.0024, -1.0078, 0.0000, 1.3674, 0.0744, -0.7527, 0.2118, 0.0000, -1.0000
11.0990, 0.0000, 0.0000, 0.0000, 0.0000, 0.0000, 0.0000, 0.1504, 0.0919, -0.9534, -0.0001, -0.0116, 0.0172, 708, 771640, 0.1526, -0.0025, -1.0085, 0.0000, 1.3674, 0.0743, -0.7526, 0.2158, 0.0000, -1.0000
11.1190, 0.0000, 0.0000, 0.0000, 0.0000, 0.0000, 0.0000, 0.1530, 0.0918, -0.9546, 0.0001, -0.0117, 0.0181, 709, 771640, 0.1531, -0.0028, -1.0092, 0.0000, 1.3676, 0.0745, -0.7527, 0.2198, 0.0000, -1.0000
11.1390, 0.0000, 0.0000, 0.0000, 0.0000, 0.0000, 0.0000, 0.1557, 0.0917, -0.9558, 0.0005, -0.0120, 0.0176, 710, 771640, 0.1536, -0.0030, -1.0100, 0.0000, 1.3677, 0.0746, -0.7526, 0.2238, 0.0000, -1.0000
11.1590, 0.0000, 0.0000, 0.0000, 0.0000, 0.0000, 0.0000, 0.1585, 0.0913, -0.9570, 0.0006, -0.0112, 0.0174, 711, 771640, 0.1541, -0.0032, -1.0107, 0.0000, 1.3677, 0.0746, -0.7527, 0.2278, 0.0000, -1.0000
11.1890, 0.0000, 0.0000, 0.0000, 0.0000, 0.0000, 0.0000, 0.1613, 0.0911, -0.9580, 0.0004, -0.0106, 0.0178, 712, 771640, 0.1541, -0.0035, -1.0116, 0.0000, 1.3674, 0.0743, -0.7527, 0.2318, 0.0000, -1.0000
11.1990, 0.0000, 0.0000, 0.0000, 0.0000, 0.0000, 0.0000, 0.1641, 0.0910, -0.9589, 0.0008, -0.0098, 0.0178, 713, 771640, 0.1554, -0.0037, -1.0123, 0.0000, 1.3674, 0.0744, -0.7526, 0.2378, 0.0000, -1.0000
11.2190, 0.0000, 0.0000, 0.0000, 0.0000, 0.0000, 0.0000, 0.1670, 0.0908, -0.9600, 0.0011, -0.0081, 0.0179, 714, 771640, 0.1552, -0.0040, -1.0132, 0.0000, 1.3676, 0.0746, -0.7527, 0.2398, 0.0000, -1.0000
11.2390, 0.0000, 0.0000, 0.0000, 0.0000, 0.0000, 0.0000, 0.1699, 0.0906, -0.9608, 0.0012, -0.0070, 0.0183, 715, 771640, 0.1559, -0.0042, -1.0139, 0.0000, 1.3674, 0.0744, -0.7526, 0.2438, 0.0000, -1.0000
11.2700, 0.0000, 0.0000, 0.0000, 0.0000, 0.0000, 0.0000, 0.1729, 0.0905, -0.9618, 0.0015, -0.0060, 0.0180, 716, 771640, 0.1563, -0.0044, -1.0147, 0.0000, 1.3674, 0.0744, -0.7527, 0.2478, 0.0000, -1.0000
11.2800, 0.0000, 0.0000, 0.0000, 0.0000, 0.0000, 0.0000, 0.1759, 0.0903, -0.9626, 0.0016, -0.0038, 0.0182, 717, 771640, 0.1577, -0.0046, -1.0154, 0.0000, 1.3677, 0.0746, -0.7528, 0.2540, 0.0000, -1.0000
11.3000, 0.0000, 0.0000, 0.0000, 0.0000, 0.0000, 0.0000, 0.1789, 0.0900, -0.9635, 0.0016, -0.0018, 0.0186, 718, 771640, 0.1567, -0.0050, -1.0165, 0.0000, 1.3675, 0.0744, -0.7527, 0.2560, 0.0000, -1.0000
11.3200, 0.0000, 0.0000, 0.0000, 0.0000, 0.0000, 0.0000, 0.1818, 0.0898, -0.9643, 0.0025, 0.0000, 0.0185, 719, 771640, 0.1585, -0.0051, -1.0170, 0.0000, 1.3675, 0.0744, -0.7528, 0.2600, 0.0000, -1.0000
11.3400, 0.0000, 0.0000, 0.0000, 0.0000, 0.0000, 0.0000, 0.1848, 0.0896, -0.9651, 0.0021, 0.0014, 0.0178, 720, 771640, 0.1583, -0.0054, -1.0180, 0.0000, 1.3677, 0.0745, -0.7528, 0.2640, 0.0000, -1.0000
11.3700, 0.0000, 0.0000, 0.0000, 0.0000, 0.0000, 0.0000, 0.1879, 0.0896, -0.9659, 0.0025, 0.0032, 0.0175, 721, 771640, 0.1592, -0.0056, -1.0187, 0.0000, 1.3676, 0.0744, -0.7527, 0.2680, 0.0000, -1.0000
11.3800, 0.0000, 0.0000, 0.0000, 0.0000, 0.0000, 0.0000, 0.1909, 0.0893, -0.9668, 0.0028, 0.0048, 0.0174, 722, 771640, 0.1595, -0.0059, -1.0196, 0.0000, 1.3675, 0.0744, -0.7527, 0.2740, 0.0000, -1.0000
11.4000, 0.0000, 0.0000, 0.0000, 0.0000, 0.0000, 0.0000, 0.1939, 0.0890, -0.9676, 0.0027, 0.0058, 0.0173, 723, 771640, 0.1604, -0.0061, -1.0203, 0.0000, 1.3678, 0.0745, -0.7528, 0.2760, 0.0000, -1.0000
11.4200, 0.0000, 0.0000, 0.0000, 0.0000, 0.0000, 0.0000, 0.1969, 0.0890, -0.9684, 0.0032, 0.0074, 0.0175, 724, 771640, 0.1601, -0.0064, -1.0213, 0.0000, 1.3675, 0.0744, -0.7528, 0.2800, 0.0000, -1.0000
11.4400, 0.0000, 0.0000, 0.0000, 0.0000, 0.0000, 0.0000, 0.1997, 0.0888, -0.9692, 0.0035, 0.0103, 0.0171, 725, 771640, 0.1616, -0.0066, -1.0219, 0.0000, 1.3676, 0.0745, -0.7528, 0.2840, 0.0000, -1.0000
11.4600, 0.0000, 0.0000, 0.0000, 0.0000, 0.0000, 0.0000, 0.2027, 0.0885, -0.9701, 0.0036, 0.0118, 0.0172, 726, 771640, 0.1610, -0.0069, -1.0230, 0.0000, 1.3675, 0.0744, -0.7528, 0.2880, 0.0000, -1.0000
11.4800, 0.0000, 0.0000, 0.0000, 0.0000, 0.0000, 0.0000, 0.2055, 0.0883, -0.9709, 0.0036, 0.0133, 0.0164, 727, 771640, 0.1630, -0.0071, -1.0235, 0.0000, 1.3678, 0.0746, -0.7528, 0.2920, 0.0000, -1.0000
11.5000, 0.0000, 0.0000, 0.0000, 0.0000, 0.0000, 0.0000, 0.2083, 0.0882, -0.9719, 0.0039, 0.0147, 0.0167, 728, 771640, 0.1615, -0.0075, -1.0248, 0.0000, 1.3675, 0.0745, -0.7527, 0.2960, 0.0000, -1.0000
11.5200, 0.0000, 0.0000, 0.0000, 0.0000, 0.0000, 0.0000, 0.2110, 0.0880, -0.9727, 0.0040, 0.0161, 0.0170, 729, 771640, 0.1645, -0.0076, -1.0251, 0.0000, 1.3678, 0.0746, -0.7528, 0.3000, 0.0000, -1.0000
11.5400, 0.0000, 0.0000, 0.0000, 0.0000, 0.0000, 0.0000, 0.2138, 0.0878, -0.9737, 0.0043, 0.0180, 0.0175, 730, 771640, 0.1621, -0.0080, -1.0266, 0.0000, 1.3675, 0.0744, -0.7527, 0.3040, 0.0000, -1.0000
11.5600, 0.0000, 0.0000, 0.0000, 0.0000, 0.0000, 0.0000, 0.2164, 0.0876, -0.9746, 0.0046, 0.0190, 0.0166, 731, 771640, 0.1655, -0.0081, -1.0268, 0.0000, 1.3675, 0.0745, -0.7527, 0.3080, 0.0000, -1.0000
11.5800, 0.0000, 0.0000, 0.0000, 0.0000, 0.0000, 0.0000, 0.2191, 0.0875, -0.9756, 0.0046, 0.0197, 0.0167, 732, 771640, 0.1637, -0.0085, -1.0282, 0.0000, 1.3679, 0.0747, -0.7528, 0.3120, 0.0000, -1.0000
11.6000, 0.0000, 0.0000, 0.0000, 0.0000, 0.0000, 0.0000, 0.2215, 0.0872, -0.9766, 0.0046, 0.0207, 0.0172, 733, 771640, 0.1660, -0.0086, -1.0287, 0.0000, 1.3675, 0.0744, -0.7528, 0.3160, 0.0000, -1.0000
11.6200, 0.0000, 0.0000, 0.0000, 0.0000, 0.0000, 0.0000, 0.2240, 0.0871, -0.9776, 0.0048, 0.0214, 0.0175, 734, 771640, 0.1646, -0.0090, -1.0300, 0.0000, 1.3675, 0.0744, -0.7528, 0.3200, 0.0000, -1.0000
11.6400, 0.0000, 0.0000, 0.0000, 0.0000, 0.0000, 0.0000, 0.2264, 0.0870, -0.9785, 0.0050, 0.0222, 0.0175, 735, 771640, 0.1676, -0.0091, -1.0303, 0.0000, 1.3678, 0.0746, -0.7528, 0.3240, 0.0000, -1.0000
11.6600, 0.0000, 0.0000, 0.0000, 0.0000, 0.0000, 0.0000, 0.2287, 0.0868, -0.9796, 0.0051, 0.0226, 0.0174, 736, 771640, 0.1652, -0.0096, -1.0319, 0.0000, 1.3676, 0.0745, -0.7528, 0.3280, 0.0000, -1.0000
11.6800, 0.0000, 0.0000, 0.0000, 0.0000, 0.0000, 0.0000, 0.2309, 0.0866, -0.9806, 0.0049, 0.0230, 0.0181, 737, 771640, 0.1686, -0.0097, -1.0321, 0.0000, 1.3675, 0.0745, -0.7528, 0.3320, 0.0000, -1.0000
11.7000, 0.0000, 0.0000, 0.0000, 0.0000, 0.0000, 0.0000, 0.2330, 0.0865, -0.9816, 0.0050, 0.0236, 0.0184, 738, 771640, 0.1661, -0.0102, -1.0337, 0.0000, 1.3675, 0.0744, -0.7528, 0.3360, 0.0000, -1.0000
11.7200, 0.0000, 0.0000, 0.0000, 0.0000, 0.0000, 0.0000, 0.2351, 0.0863, -0.9826, 0.0053, 0.0241, 0.0189, 739, 771640, 0.1704, -0.0102, -1.0338, 0.0000, 1.3679, 0.0746, -0.7529, 0.3400, 0.0000, -1.0000
11.7400, 0.0000, 0.0000, 0.0000, 0.0000, 0.0000, 0.0000, 0.2371, 0.0861, -0.9837, 0.0053, 0.0246, 0.0199, 740, 771640, 0.1664, -0.0108, -1.0357, 0.0000, 1.3676, 0.0745, -0.7528, 0.3440, 0.0000, -1.0000
11.7700, 0.0000, 0.0000, 0.0000, 0.0000, 0.0000, 0.0000, 0.2389, 0.0860, -0.9848, 0.0054, 0.0254, 0.0194, 741, 771640, 0.1717, -0.0107, -1.0356, 0.0000, 1.3675, 0.0744, -0.7528, 0.3480, 0.0000, -1.0000
11.7800, 0.0000, 0.0000, 0.0000, 0.0000, 0.0000, 0.0000, 0.2408, 0.0858, -0.9858, 0.0058, 0.0255, 0.0198, 742, 771640, 0.1679, -0.0113, -1.0376, 0.0000, 1.3678, 0.0746, -0.7528, 0.3540, 0.0000, -1.0000
11.8000, 0.0000, 0.0000, 0.0000, 0.0000, 0.0000, 0.0000, 0.2424, 0.0857, -0.9869, 0.0060, 0.0259, 0.0186, 743, 771640, 0.1724, -0.0113, -1.0376, 0.0000, 1.3676, 0.0745, -0.7528, 0.3560, 0.0000, -1.0000
11.8200, 0.0000, 0.0000, 0.0000, 0.0000, 0.0000, 0.0000, 0.2442, 0.0855, -0.9881, 0.0057, 0.0260, 0.0185, 744, 771640, 0.1692, -0.0119, -1.0394, 0.0000, 1.3679, 0.0746, -0.7528, 0.3600, 0.0000, -1.0000
11.8400, 0.0000, 0.0000, 0.0000, 0.0000, 0.0000, 0.0000, 0.2457, 0.0853, -0.9891, 0.0059, 0.0254, 0.0186, 745, 771640, 0.1732, -0.0119, -1.0395, 0.0000, 1.3675, 0.0744, -0.7528, 0.3640, 0.0000, -1.0000
11.8600, 0.0000, 0.0000, 0.0000, 0.0000, 0.0000, 0.0000, 0.2471, 0.0853, -0.9903, 0.0063, 0.0252, 0.0184, 746, 771640, 0.1699, -0.0125, -1.0414, 0.0000, 1.3675, 0.0745, -0.7527, 0.3680, 0.0000, -1.0000
11.8800, 0.0000, 0.0000, 0.0000, 0.0000, 0.0000, 0.0000, 0.2486, 0.0852, -0.9915, 0.0062, 0.0248, 0.0196, 747, 771640, 0.1748, -0.0125, -1.0413, 0.0000, 1.3676, 0.0745, -0.7528, 0.3720, 0.0000, -1.0000
11.9000, 0.0000, 0.0000, 0.0000, 0.0000, 0.0000, 0.0000, 0.2498, 0.0850, -0.9926, 0.0065, 0.0248, 0.0198, 748, 771640, 0.1709, -0.0131, -1.0434, 0.0000, 1.3679, 0.0746, -0.7529, 0.3760, 0.0000, -1.0000
11.9200, 0.0000, 0.0000, 0.0000, 0.0000, 0.0000, 0.0000, 0.2510, 0.0850, -0.9937, 0.0064, 0.0252, 0.0195, 749, 771640, 0.1759, -0.0130, -1.0433, 0.0000, 1.3676, 0.0744, -0.7528, 0.3800, 0.0000, -1.0000
